Block,blockMsg,thisN,thisTrialN,thisRepN,CueType,StimType,CueTime,Stim_Height,Stim_Width,CRESP,Color,Orientation,key_resp_2.keys,key_resp_2.rt,key_resp_2.duration,Key_Resp.keys,Key_Resp.corr,Key_Resp.rt,Key_Resp.duration,key_resp_3.keys,key_resp_3.rt,key_resp_3.duration,Blocks.thisRepN,Blocks.thisTrialN,Blocks.thisN,Blocks.thisIndex,Trials.thisRepN,Trials.thisTrialN,Trials.thisN,Trials.thisIndex,thisRow.t,notes,TaskIntro.started,fixation.started,key_resp.started,TaskIntro.stopped,key_resp.keys,key_resp.rt,key_resp.duration,BlockStart.started,BlockStart_Msg.started,key_resp_2.started,BlockStart.stopped,Blocks.key_resp_2.keys,Blocks.key_resp_2.rt,Blocks.key_resp_2.duration,Fixation.started,FixationPhase.started,Blank.started,FixationPhase.stopped,Blank.stopped,Fixation.stopped,Trial.started,Cue.started,Cue.stopped,GoNogo_Stim.started,Key_Resp.started,Trial.stopped,Trials.Key_Resp.keys,Trials.Key_Resp.corr,Trials.Key_Resp.rt,Trials.Key_Resp.duration,Feedback.started,Feedback_Present.started,Feedback_Present.stopped,Feedback.stopped,GoNogo_Stim.stopped,Key_Resp.stopped,BlockEnd.started,BlockEnd_Msg.started,key_resp_3.started,BlockEnd.stopped,Blocks.key_resp_3.keys,Blocks.key_resp_3.rt,Blocks.key_resp_3.duration,TaskEnd.started,ThankYou.started,key_resp_4.started,TaskEnd.stopped,key_resp_4.keys,key_resp_4.rt,key_resp_4.duration,participant,session,date,expName,psychopyVersion,frameRate,expStart,
,,,,,,,,,,,,,,,,,,,,,,,,,,,,,,,,,0.0759478000109084,0.09718619997147471,0.09718619997147471,7.459427499969024,space,7.3395351999788545,None,,,,,,,,,,,,,,,,,,,,,,,,,,,,,,,,,,,,,,,,,,,,004,002,2025-04-28_17h54.31.464,Cued GoNogo Task,2024.2.4,60.0039842599661,2025-04-28 17h54.42.237612 +0200,
block/CondBlock1.xlsx,You are about to start a block of type 1 trials.,0,0,0,Go,Go,0.13,0.05,0.2,space,blue,horizontal,space,3.6008775999653153,None,space,1,0.3461816000053659,None,,,,0,0,0,0,0,0,0,0,11.146497499954421,,,,,,,,,7.473576299962588,7.4760867999866605,7.4760867999866605,11.087391100008972,space,3.6008775999653153,None,11.143588699982502,11.146497499954421,11.802503599959891,11.852351200010162,12.302090499957558,12.286207999975886,12.286957699980121,12.302090499957558,12.435154999955557,12.618445499974769,12.618445499974769,12.968831799982581,space,1,0.3461816000053659,None,12.980186700006016,13.484417199972086,14.483612599957269,14.467922799987718,,,,,,,,,,,,,,,,,004,002,2025-04-28_17h54.31.464,Cued GoNogo Task,2024.2.4,60.0039842599661,2025-04-28 17h54.42.237612 +0200,
block/CondBlock1.xlsx,You are about to start a block of type 1 trials.,1,1,0,NoGo,NoGo,0.43,0.05,0.2,none,blue,horizontal,space,3.6008775999653153,None,None,1,,,,,,0,0,0,0,0,1,1,1,14.483612599957269,,,,,,,,,,,,,,,,14.468290299992077,14.483612599957269,15.18292339995969,15.18292339995969,15.68252199998824,15.666663699958008,15.667328999959864,15.68252199998824,16.115561399958096,16.298803499958012,16.298803499958012,16.78232349996688,None,1,,,16.786187499994412,17.29780669999309,18.297051900008228,18.281321899965405,16.798266500001773,16.798266500001773,,,,,,,,,,,,,,,004,002,2025-04-28_17h54.31.464,Cued GoNogo Task,2024.2.4,60.0039842599661,2025-04-28 17h54.42.237612 +0200,
block/CondBlock1.xlsx,You are about to start a block of type 1 trials.,2,2,0,Go,Go,0.12,0.2,0.05,space,blue,vertical,space,3.6008775999653153,None,space,1,0.30504489998565987,None,,,,0,0,0,0,0,2,2,2,18.297051900008228,,,,,,,,,,,,,,,,18.281669299991336,18.297051900008228,18.99633769999491,18.99633769999491,19.496225799957756,19.48001130000921,19.480551499989815,19.496225799957756,19.629325499990955,19.812451499979943,19.812451499979943,20.129682099970523,space,1,0.30504489998565987,None,20.135062799963634,20.645327500009444,,21.64461079996545,,,,,,,,,,,,,,,,,004,002,2025-04-28_17h54.31.464,Cued GoNogo Task,2024.2.4,60.0039842599661,2025-04-28 17h54.42.237612 +0200,
block/CondBlock1.xlsx,You are about to start a block of type 1 trials.,3,3,0,NoGo,NoGo,0.18,0.2,0.05,none,green,vertical,space,3.6008775999653153,None,space,0,0.2746934999595396,None,,,,0,0,0,0,0,3,3,3,21.661049199989066,,,,,,,,,,,,,,,,21.644990900007542,21.661049199989066,22.343749099993147,22.360310599964578,22.843230099999346,22.827210299961735,22.82791469997028,22.843230099999346,23.026615599985234,23.209721499995794,23.209721499995794,23.49378949997481,space,0,0.2746934999595396,None,23.50365079997573,24.009084999968763,25.00832939997781,24.992398399976082,,,,,,,,,,,,,,,,,004,002,2025-04-28_17h54.31.464,Cued GoNogo Task,2024.2.4,60.0039842599661,2025-04-28 17h54.42.237612 +0200,
block/CondBlock1.xlsx,You are about to start a block of type 1 trials.,4,4,0,Go,Go,0.24,0.05,0.2,space,green,horizontal,space,3.6008775999653153,None,space,1,0.30957090004812926,None,,,,0,0,0,0,0,4,4,4,25.00832939997781,,,,,,,,,,,,,,,,24.992718199966475,25.00832939997781,25.70738669997081,25.70738669997081,26.20720349997282,26.191077499999665,26.19164279999677,26.20720349997282,26.456931399996392,26.64028049999615,26.64028049999615,26.957746399973985,space,1,0.30957090004812926,None,26.962804799957667,27.472799299983308,28.471955299959518,28.455914699996356,,,,,,,,,,,,,,,,,004,002,2025-04-28_17h54.31.464,Cued GoNogo Task,2024.2.4,60.0039842599661,2025-04-28 17h54.42.237612 +0200,
block/CondBlock1.xlsx,You are about to start a block of type 1 trials.,5,5,0,Go,Go,0.21,0.05,0.2,space,blue,horizontal,space,3.6008775999653153,None,space,1,0.36642619996564463,None,,,,0,0,0,0,0,5,5,5,28.471955299959518,,,,,,,,,,,,,,,,28.456171199970413,28.471955299959518,29.171352499979548,29.171352499979548,29.671242799959145,29.654932099976577,29.655555900011677,29.671242799959145,29.887356799968984,30.07092869997723,30.07092869997723,30.439796099963132,space,1,0.36642619996564463,None,30.443207999982405,30.953122599981725,31.95227069995599,31.93664649996208,,,,,,,,,,,,,,,,,004,002,2025-04-28_17h54.31.464,Cued GoNogo Task,2024.2.4,60.0039842599661,2025-04-28 17h54.42.237612 +0200,
block/CondBlock1.xlsx,You are about to start a block of type 1 trials.,6,6,0,Go,Go,0.11,0.2,0.05,space,blue,vertical,space,3.6008775999653153,None,space,1,0.40979230002267286,None,,,,0,0,0,0,0,6,6,6,31.95227069995599,,,,,,,,,,,,,,,,31.936939999985043,31.95227069995599,32.65194289997453,32.65194289997453,33.151356099988334,33.135587299999315,33.136230600008275,33.151356099988334,33.2679899999639,33.451253700011875,33.451253700011875,33.8687876999611,space,1,0.40979230002267286,None,33.873102499987,34.38376509997761,35.382816799974535,35.36679850000655,,,,,,,,,,,,,,,,,004,002,2025-04-28_17h54.31.464,Cued GoNogo Task,2024.2.4,60.0039842599661,2025-04-28 17h54.42.237612 +0200,
block/CondBlock1.xlsx,You are about to start a block of type 1 trials.,7,7,0,Go,Go,0.15,0.2,0.05,space,blue,vertical,space,3.6008775999653153,None,space,1,0.2889285999699496,None,,,,0,0,0,0,0,7,7,7,35.382816799974535,,,,,,,,,,,,,,,,35.367059399955906,35.382816799974535,36.08245489996625,36.08245489996625,36.58206569997128,36.566230900003575,36.56710679997923,36.58206569997128,36.73189599998295,36.931648599973414,36.931648599973414,37.232728499977384,space,1,0.2889285999699496,None,37.240120199974626,37.74775499996031,38.746826599992346,38.731189899961464,,,,,,,,,,,,,,,,,004,002,2025-04-28_17h54.31.464,Cued GoNogo Task,2024.2.4,60.0039842599661,2025-04-28 17h54.42.237612 +0200,
block/CondBlock1.xlsx,You are about to start a block of type 1 trials.,8,8,0,NoGo,NoGo,0.3,0.05,0.2,none,blue,horizontal,space,3.6008775999653153,None,None,1,,,,,,0,0,0,0,0,8,8,8,38.746826599992346,,,,,,,,,,,,,,,,38.73150509997504,38.746826599992346,39.44622340000933,39.44622340000933,39.94588459999068,39.92992460000096,39.93047630001092,39.94588459999068,40.245610299985856,40.44542239996372,40.44542239996372,40.92895949998638,None,1,,,40.93189559999155,41.44473469996592,42.44375699997181,42.42799689999083,40.944895099964924,40.944895099964924,,,,,,,,,,,,,,,004,002,2025-04-28_17h54.31.464,Cued GoNogo Task,2024.2.4,60.0039842599661,2025-04-28 17h54.42.237612 +0200,
block/CondBlock1.xlsx,You are about to start a block of type 1 trials.,9,9,0,NoGo,NoGo,0.17,0.05,0.2,none,blue,horizontal,space,3.6008775999653153,None,None,1,,,,,,0,0,0,0,0,9,9,9,42.44375699997181,,,,,,,,,,,,,,,,42.428325599990785,42.44375699997181,43.14328839996597,43.14328839996597,43.642853099969216,43.62686959997518,43.62742330000037,43.642853099969216,43.8260631999583,44.009093999979086,44.009093999979086,44.49265789997298,None,1,,,44.49310279998463,45.00839009997435,46.00745460001053,45.99184669996612,44.50862709997455,44.50862709997455,,,,,,,,,,,,,,,004,002,2025-04-28_17h54.31.464,Cued GoNogo Task,2024.2.4,60.0039842599661,2025-04-28 17h54.42.237612 +0200,
block/CondBlock1.xlsx,You are about to start a block of type 1 trials.,10,10,0,NoGo,NoGo,0.26,0.2,0.05,none,green,vertical,space,3.6008775999653153,None,None,1,,,,,,0,0,0,0,0,10,10,10,46.00745460001053,,,,,,,,,,,,,,,,45.99215639999602,46.00745460001053,46.706916800001636,46.706916800001636,47.206495099992026,47.19088899996132,47.19165499997325,47.206495099992026,47.47300030000042,47.65615549997892,47.65615549997892,48.13992479996523,None,1,,,48.14039169996977,48.65536749997409,49.65468089998467,49.63864099996863,48.15575809997972,48.15575809997972,,,,,,,,,,,,,,,004,002,2025-04-28_17h54.31.464,Cued GoNogo Task,2024.2.4,60.0039842599661,2025-04-28 17h54.42.237612 +0200,
block/CondBlock1.xlsx,You are about to start a block of type 1 trials.,11,11,0,Go,Go,0.27,0.05,0.2,space,green,horizontal,space,3.6008775999653153,None,space,1,0.413550800003577,None,,,,0,0,0,0,0,11,11,11,49.65468089998467,,,,,,,,,,,,,,,,49.638940699980594,49.65468089998467,50.3540856000036,50.3540856000036,50.853697299957275,50.837467000004835,50.83803230000194,50.853697299957275,51.13690499996301,51.3199464000063,51.3199464000063,51.73697579995496,space,1,0.413550800003577,None,51.74106450000545,52.252520699985325,53.25168059999123,53.23578709998401,,,,,,,,,,,,,,,,,004,002,2025-04-28_17h54.31.464,Cued GoNogo Task,2024.2.4,60.0039842599661,2025-04-28 17h54.42.237612 +0200,
block/CondBlock1.xlsx,You are about to start a block of type 1 trials.,12,12,0,Go,Go,0.16,0.2,0.05,space,green,vertical,space,3.6008775999653153,None,space,1,0.3175760000012815,None,,,,0,0,0,0,0,12,12,12,53.25168059999123,,,,,,,,,,,,,,,,53.236107799981255,53.25168059999123,53.95120299997507,53.95120299997507,54.45068409998203,54.435028599982616,54.435896200011484,54.45068409998203,54.61733539996203,54.80024919996504,54.80024919996504,55.13450659997761,space,1,0.3175760000012815,None,55.13955119997263,55.649667599995155,56.6487683999585,56.63300719996914,,,,,,,,,,,,,,,,,004,002,2025-04-28_17h54.31.464,Cued GoNogo Task,2024.2.4,60.0039842599661,2025-04-28 17h54.42.237612 +0200,
block/CondBlock1.xlsx,You are about to start a block of type 1 trials.,13,13,0,Go,Go,0.13,0.2,0.05,space,green,vertical,space,3.6008775999653153,None,None,0,,,,,,0,0,0,0,0,13,13,13,56.6487683999585,,,,,,,,,,,,,,,,56.6333001999883,56.6487683999585,57.34820299997227,57.34820299997227,57.84763529995689,57.83184629998868,57.83241709996946,57.84763529995689,57.98101599997608,58.164249899971765,58.164249899971765,58.64786019996973,None,0,,,58.65302299999166,59.16334729996743,60.16256049997173,60.14659879996907,58.66372299997602,58.66372299997602,,,,,,,,,,,,,,,004,002,2025-04-28_17h54.31.464,Cued GoNogo Task,2024.2.4,60.0039842599661,2025-04-28 17h54.42.237612 +0200,
block/CondBlock1.xlsx,You are about to start a block of type 1 trials.,14,14,0,Go,Go,0.12,0.05,0.2,space,blue,horizontal,space,3.6008775999653153,None,space,1,0.23868499998934567,None,,,,0,0,0,0,0,14,14,14,60.16256049997173,,,,,,,,,,,,,,,,60.146906699985266,60.16256049997173,60.86211369995726,60.86211369995726,61.361800999962725,61.345657699974254,61.346343499957584,61.361800999962725,61.494917000003625,61.6779455000069,61.6779455000069,61.92875669995556,space,1,0.23868499998934567,None,61.93223479995504,62.44418519997271,63.443201999994926,63.42762069997843,,,,,,,,,,,,,,,,,004,002,2025-04-28_17h54.31.464,Cued GoNogo Task,2024.2.4,60.0039842599661,2025-04-28 17h54.42.237612 +0200,
block/CondBlock1.xlsx,You are about to start a block of type 1 trials.,15,15,0,Go,Go,0.45,0.2,0.05,space,blue,vertical,space,3.6008775999653153,None,space,1,0.3384035999770276,None,,,,0,0,0,0,0,15,15,15,63.443201999994926,,,,,,,,,,,,,,,,63.42799200001173,63.443201999994926,64.14262499997858,64.14262499997858,64.64231049997034,64.62645509996219,64.62713899998926,64.64231049997034,65.09185959998285,65.29180820001056,65.29180820001056,65.64238589996239,space,1,0.3384035999770276,None,65.64565709995804,66.15768109995406,67.15685019997181,67.14085389999673,,,,,,,,,,,,,,,,,004,002,2025-04-28_17h54.31.464,Cued GoNogo Task,2024.2.4,60.0039842599661,2025-04-28 17h54.42.237612 +0200,
block/CondBlock1.xlsx,You are about to start a block of type 1 trials.,16,16,0,NoGo,NoGo,0.14,0.2,0.05,none,green,vertical,space,3.6008775999653153,None,None,1,,,,,,0,0,0,0,0,16,16,16,67.15685019997181,,,,,,,,,,,,,,,,67.14112059999024,67.15685019997181,67.85610269999597,67.85610269999597,68.35581919999095,68.34038179996423,68.3409832000034,68.35581919999095,68.50579109997489,68.68902140000137,68.68902140000137,69.17264830000931,None,1,,,69.17506029998185,69.68802790000336,70.68724130000919,70.67119339999044,69.18854449997889,69.18854449997889,,,,,,,,,,,,,,,004,002,2025-04-28_17h54.31.464,Cued GoNogo Task,2024.2.4,60.0039842599661,2025-04-28 17h54.42.237612 +0200,
block/CondBlock1.xlsx,You are about to start a block of type 1 trials.,17,17,0,Go,Go,0.12,0.05,0.2,space,green,horizontal,space,3.6008775999653153,None,space,1,0.27387820003787056,None,,,,0,0,0,0,0,17,17,17,70.68724130000919,,,,,,,,,,,,,,,,70.67144959996222,70.68724130000919,71.38666899997042,71.38666899997042,71.88626319996547,71.87045449996367,71.87115779996384,71.88626319996547,72.0193799000117,72.20272169995587,72.20272169995587,72.48693889996503,space,1,0.27387820003787056,None,72.49177029996645,73.0023287999793,,74.00139539997326,,,,,,,,,,,,,,,,,004,002,2025-04-28_17h54.31.464,Cued GoNogo Task,2024.2.4,60.0039842599661,2025-04-28 17h54.42.237612 +0200,
block/CondBlock1.xlsx,You are about to start a block of type 1 trials.,18,18,0,Go,Go,0.47,0.2,0.05,space,blue,vertical,space,3.6008775999653153,None,space,1,0.3942753999726847,None,,,,0,0,0,0,0,18,18,18,74.01788800000213,,,,,,,,,,,,,,,,74.00167769996915,74.01788800000213,74.70060250000097,74.71721979998983,75.20025789999636,75.18462680000812,75.1852896999917,75.20025789999636,75.68305039999541,75.86621179996291,75.86621179996291,76.26766179996775,space,1,0.3942753999726847,None,76.27185819996521,76.78236279997509,77.78149749996373,77.76571439998224,,,,,,,,,,,,,,,,,004,002,2025-04-28_17h54.31.464,Cued GoNogo Task,2024.2.4,60.0039842599661,2025-04-28 17h54.42.237612 +0200,
block/CondBlock1.xlsx,You are about to start a block of type 1 trials.,19,19,0,Go,Go,0.18,0.2,0.05,space,green,vertical,space,3.6008775999653153,None,space,1,0.37111309997271746,None,,,,0,0,0,0,0,19,19,19,77.78149749996373,,,,,,,,,,,,,,,,77.76599779998651,77.78149749996373,78.48070249997545,78.48070249997545,78.98043489997508,78.9646766000078,78.96549199998844,78.98043489997508,79.16355090000434,79.34690100001171,79.34690100001171,79.73091729998123,space,1,0.37111309997271746,None,79.73502630001167,80.2459816999617,81.24529160000384,81.22948280000128,,,,,,,,,,,,,,,,,004,002,2025-04-28_17h54.31.464,Cued GoNogo Task,2024.2.4,60.0039842599661,2025-04-28 17h54.42.237612 +0200,
block/CondBlock1.xlsx,You are about to start a block of type 1 trials.,20,20,0,Go,Go,0.19,0.2,0.05,space,blue,vertical,space,3.6008775999653153,None,space,1,0.3151772999553941,None,,,,0,0,0,0,0,20,20,20,81.24529160000384,,,,,,,,,,,,,,,,81.22973389999242,81.24529160000384,81.9446824999759,81.9446824999759,82.44425760000013,82.42832229996566,82.42897999996785,82.44425760000013,82.64409929997055,82.82713240000885,82.82713240000885,83.14554969995515,space,1,0.3151772999553941,None,83.14929410000332,83.66009119997034,84.65903729997808,84.64300919999368,,,,,,,,,,,,,,,,,004,002,2025-04-28_17h54.31.464,Cued GoNogo Task,2024.2.4,60.0039842599661,2025-04-28 17h54.42.237612 +0200,
block/CondBlock1.xlsx,You are about to start a block of type 1 trials.,21,21,0,Go,Go,0.14,0.2,0.05,space,blue,vertical,space,3.6008775999653153,None,space,1,0.365836400014814,None,,,,0,0,0,0,0,21,21,21,84.65903729997808,,,,,,,,,,,,,,,,84.64319729997078,84.65903729997808,85.35855760000413,85.35855760000413,85.85809579998022,85.84235990000889,85.84303960000398,85.85809579998022,86.0079887000029,86.1911663999781,86.1911663999781,86.5594817000092,space,1,0.365836400014814,None,86.56379190000007,87.0737977999961,88.07301369996276,88.05732530000387,,,,,,,,,,,,,,,,,004,002,2025-04-28_17h54.31.464,Cued GoNogo Task,2024.2.4,60.0039842599661,2025-04-28 17h54.42.237612 +0200,
block/CondBlock1.xlsx,You are about to start a block of type 1 trials.,22,22,0,Go,Go,0.15,0.2,0.05,space,blue,vertical,space,3.6008775999653153,None,space,1,0.26346749998629093,None,,,,0,0,0,0,0,22,22,22,88.07301369996276,,,,,,,,,,,,,,,,88.05775310000172,88.07301369996276,88.77243770001223,88.77243770001223,89.27192349999677,89.25631560001057,89.25701910001226,89.27192349999677,89.42186579998815,89.62160509999376,89.62160509999376,89.88945409998996,space,1,0.26346749998629093,None,89.89395539998077,90.40442999999505,91.40353949996643,91.38765639998019,,,,,,,,,,,,,,,,,004,002,2025-04-28_17h54.31.464,Cued GoNogo Task,2024.2.4,60.0039842599661,2025-04-28 17h54.42.237612 +0200,
block/CondBlock1.xlsx,You are about to start a block of type 1 trials.,23,23,0,Go,Go,0.23,0.05,0.2,space,green,horizontal,space,3.6008775999653153,None,space,1,0.37837990000844,None,,,,0,0,0,0,0,23,23,23,91.40353949996643,,,,,,,,,,,,,,,,91.38808329997119,91.40353949996643,92.10281599999871,92.10281599999871,92.6025308999815,92.58699719997821,92.58792959997663,92.6025308999815,92.8356691999943,93.01907039998332,93.01907039998332,93.40311979997205,space,1,0.37837990000844,None,93.40756879997207,93.9182170999702,94.91732939996291,94.90161080000689,,,,,,,,,,,,,,,,,004,002,2025-04-28_17h54.31.464,Cued GoNogo Task,2024.2.4,60.0039842599661,2025-04-28 17h54.42.237612 +0200,
block/CondBlock1.xlsx,You are about to start a block of type 1 trials.,24,24,0,Go,Go,0.2,0.2,0.05,space,blue,vertical,space,3.6008775999653153,None,space,1,0.416822700004559,None,,,,0,0,0,0,0,24,24,24,94.91732939996291,,,,,,,,,,,,,,,,94.90185439999914,94.91732939996291,95.61664560000645,95.61664560000645,96.11624719999963,96.10037759999977,96.10100229998352,96.11624719999963,96.31614559999434,96.51602489996003,96.51602489996003,96.93512709997594,space,1,0.416822700004559,None,96.93890740000643,97.44867069995962,98.44782449997729,98.43172150000464,,,,,,,,,,,,,,,,,004,002,2025-04-28_17h54.31.464,Cued GoNogo Task,2024.2.4,60.0039842599661,2025-04-28 17h54.42.237612 +0200,
block/CondBlock1.xlsx,You are about to start a block of type 1 trials.,25,25,0,Go,Go,0.15,0.2,0.05,space,blue,vertical,space,3.6008775999653153,None,space,1,0.26499799999874085,None,,,,0,0,0,0,0,25,25,25,98.44782449997729,,,,,,,,,,,,,,,,98.43194529996254,98.44782449997729,99.1472175999661,99.1472175999661,99.6468281999696,99.63082269998267,99.63150159997167,99.6468281999696,99.79734549997374,99.99663879995933,99.99663879995933,100.26546319999034,space,1,0.26499799999874085,None,100.27034469996579,100.77914900000906,101.77835350000532,101.76251589995809,,,,,,,,,,,,,,,,,004,002,2025-04-28_17h54.31.464,Cued GoNogo Task,2024.2.4,60.0039842599661,2025-04-28 17h54.42.237612 +0200,
block/CondBlock1.xlsx,You are about to start a block of type 1 trials.,26,26,0,NoGo,NoGo,0.2,0.2,0.05,none,blue,vertical,space,3.6008775999653153,None,None,1,,,,,,0,0,0,0,0,26,26,26,101.77835350000532,,,,,,,,,,,,,,,,101.76277520001167,101.77835350000532,102.47784299997147,102.47784299997147,102.97727370000212,102.96105379995424,102.96146510000108,102.97727370000212,103.17694889998529,103.37686610000674,103.37686610000674,103.86045330000343,None,1,,,103.8636193999555,104.35970319999615,105.35873300000094,105.3429442999768,103.8765679000062,103.8765679000062,,,,,,,,,,,,,,,004,002,2025-04-28_17h54.31.464,Cued GoNogo Task,2024.2.4,60.0039842599661,2025-04-28 17h54.42.237612 +0200,
block/CondBlock1.xlsx,You are about to start a block of type 1 trials.,27,27,0,Go,Go,0.29,0.05,0.2,space,green,horizontal,space,3.6008775999653153,None,space,1,0.4122122999979183,None,,,,0,0,0,0,0,27,27,27,105.35873300000094,,,,,,,,,,,,,,,,105.34326069999952,105.37550550000742,106.07478809996974,106.07478809996974,106.5744445999735,106.55869979999261,106.55959109996911,106.5744445999735,106.87414709996665,107.05736859998433,107.05736859998433,107.47532719996525,space,1,0.4122122999979183,None,107.48022259998834,107.98999949998688,108.98904439999023,108.97342910000589,,,,,,,,,,,,,,,,,004,002,2025-04-28_17h54.31.464,Cued GoNogo Task,2024.2.4,60.0039842599661,2025-04-28 17h54.42.237612 +0200,
block/CondBlock1.xlsx,You are about to start a block of type 1 trials.,28,28,0,Go,Go,0.24,0.2,0.05,space,blue,vertical,space,3.6008775999653153,None,space,1,0.2807933999574743,None,,,,0,0,0,0,0,28,28,28,108.98904439999023,,,,,,,,,,,,,,,,108.97376389999408,108.98904439999023,109.68862299999455,109.68862299999455,110.18824990000576,110.17212219996145,110.17265739996219,110.18824990000576,110.43794350000098,110.62114889995428,110.62114889995428,110.90574560000096,space,1,0.2807933999574743,None,110.91098149999743,111.42053070000838,112.41964519995963,112.40387259999989,,,,,,,,,,,,,,,,,004,002,2025-04-28_17h54.31.464,Cued GoNogo Task,2024.2.4,60.0039842599661,2025-04-28 17h54.42.237612 +0200,
block/CondBlock1.xlsx,You are about to start a block of type 1 trials.,29,29,0,Go,Go,0.15,0.05,0.2,space,green,horizontal,space,3.6008775999653153,None,space,1,0.38043620000826195,None,,,,0,0,0,0,0,29,29,29,112.41964519995963,,,,,,,,,,,,,,,,112.40417389996583,112.41964519995963,113.11907379998593,113.11907379998593,113.6185722000082,113.60300629999256,113.60378770000534,113.6185722000082,113.76848619995872,113.96837369998684,113.96837369998684,114.35253019997617,space,1,0.38043620000826195,None,114.35552899999311,114.86755149997771,115.86676909995731,115.8513355999603,,,,,,,,,,,,,,,,,004,002,2025-04-28_17h54.31.464,Cued GoNogo Task,2024.2.4,60.0039842599661,2025-04-28 17h54.42.237612 +0200,
block/CondBlock1.xlsx,You are about to start a block of type 1 trials.,30,30,0,Go,Go,0.23,0.2,0.05,space,green,vertical,space,3.6008775999653153,None,space,1,0.3706083999713883,None,,,,0,0,0,0,0,30,30,30,115.86676909995731,,,,,,,,,,,,,,,,115.8518126999843,115.86676909995731,116.56620100000873,116.56620100000873,117.06577939999988,117.05000599997584,117.05067019996932,117.06577939999988,117.29900349996751,117.4822285999544,117.4822285999544,117.86597609997261,space,1,0.3706083999713883,None,117.86994619999314,118.3812114999746,119.38070290000178,119.36457499995595,,,,,,,,,,,,,,,,,004,002,2025-04-28_17h54.31.464,Cued GoNogo Task,2024.2.4,60.0039842599661,2025-04-28 17h54.42.237612 +0200,
block/CondBlock1.xlsx,You are about to start a block of type 1 trials.,31,31,0,Go,Go,0.28,0.2,0.05,space,green,vertical,space,3.6008775999653153,None,space,1,0.3124070999911055,None,,,,0,0,0,0,0,31,31,31,119.38070290000178,,,,,,,,,,,,,,,,119.36484379996546,119.38070290000178,120.07985889998963,120.07985889998963,120.57957519998308,120.56367439997848,120.56433419999667,120.57957519998308,120.86271939997096,121.04594969999744,121.04594969999744,121.36345840001013,space,1,0.3124070999911055,None,121.3673755999771,121.8785579999676,122.87763030000497,122.86200719996123,,,,,,,,,,,,,,,,,004,002,2025-04-28_17h54.31.464,Cued GoNogo Task,2024.2.4,60.0039842599661,2025-04-28 17h54.42.237612 +0200,
block/CondBlock1.xlsx,You are about to start a block of type 1 trials.,32,32,0,Go,Go,0.19,0.2,0.05,space,green,vertical,space,3.6008775999653153,None,space,1,0.2735535000101663,None,,,,0,0,0,0,0,32,32,32,122.87763030000497,,,,,,,,,,,,,,,,122.86236400000053,122.87763030000497,123.5771821999806,123.5771821999806,124.07668609998655,124.06097499997122,124.06174259999534,124.07668609998655,124.27660399995511,124.45968779997202,124.45968779997202,124.74398929998279,space,1,0.2735535000101663,None,124.74897529999726,125.25916319998214,126.25818909995724,126.24243469996145,,,,,,,,,,,,,,,,,004,002,2025-04-28_17h54.31.464,Cued GoNogo Task,2024.2.4,60.0039842599661,2025-04-28 17h54.42.237612 +0200,
block/CondBlock1.xlsx,You are about to start a block of type 1 trials.,33,33,0,Go,Go,0.12,0.2,0.05,space,green,vertical,space,3.6008775999653153,None,space,1,0.4066803000168875,None,,,,0,0,0,0,0,33,33,33,126.25818909995724,,,,,,,,,,,,,,,,126.24284909997368,126.25818909995724,126.9575724999886,126.9575724999886,127.4572037999751,127.44122249999782,127.44187949999468,127.4572037999751,127.5906294999877,127.7737058000057,127.7737058000057,128.19112259999383,space,1,0.4066803000168875,None,128.19439049996436,128.7063666000031,129.70546089997515,129.68955279997317,,,,,,,,,,,,,,,,,004,002,2025-04-28_17h54.31.464,Cued GoNogo Task,2024.2.4,60.0039842599661,2025-04-28 17h54.42.237612 +0200,
block/CondBlock1.xlsx,You are about to start a block of type 1 trials.,34,34,0,Go,Go,0.18,0.2,0.05,space,blue,vertical,space,3.6008775999653153,None,space,1,0.3821258000098169,None,,,,0,0,0,0,0,34,34,34,129.70546089997515,,,,,,,,,,,,,,,,129.68982889998006,129.70546089997515,130.40493550000247,130.40493550000247,130.90435309999157,130.88868029997684,130.88938909996068,130.90435309999157,131.08756600000197,131.27083769999444,131.27083769999444,131.65536319999956,space,1,0.3821258000098169,None,131.6589430999593,132.17006559995934,133.16924979997566,133.15338779997546,,,,,,,,,,,,,,,,,004,002,2025-04-28_17h54.31.464,Cued GoNogo Task,2024.2.4,60.0039842599661,2025-04-28 17h54.42.237612 +0200,
block/CondBlock1.xlsx,You are about to start a block of type 1 trials.,35,35,0,Go,Go,0.21,0.2,0.05,space,blue,vertical,space,3.6008775999653153,None,None,0,,,,,,0,0,0,0,0,35,35,35,133.16924979997566,,,,,,,,,,,,,,,,133.15367779997177,133.16924979997566,133.86866959999315,133.86866959999315,134.36811959999613,134.35267799999565,134.3534234999679,134.36811959999613,134.58478859998286,134.7678841999732,134.7678841999732,135.25132459995802,None,0,,,135.25373279995983,135.75043269997695,136.74960169999395,136.73359359998722,135.26752489997307,135.26752489997307,,,,,,,,,,,,,,,004,002,2025-04-28_17h54.31.464,Cued GoNogo Task,2024.2.4,60.0039842599661,2025-04-28 17h54.42.237612 +0200,
block/CondBlock1.xlsx,You are about to start a block of type 1 trials.,36,36,0,Go,Go,0.2,0.2,0.05,space,green,vertical,space,3.6008775999653153,None,space,1,0.311614100006409,None,,,,0,0,0,0,0,36,36,36,136.74960169999395,,,,,,,,,,,,,,,,136.73389440000756,136.76633559999755,137.46585219999542,137.46585219999542,137.96509969996987,137.94926819996908,137.94999870000174,137.96509969996987,138.16489700000966,138.3651062999852,138.3651062999852,138.68292499997187,space,1,0.311614100006409,None,138.68907159997616,139.19753219996346,140.19703989999834,140.1808136999607,,,,,,,,,,,,,,,,,004,002,2025-04-28_17h54.31.464,Cued GoNogo Task,2024.2.4,60.0039842599661,2025-04-28 17h54.42.237612 +0200,
block/CondBlock1.xlsx,You are about to start a block of type 1 trials.,37,37,0,Go,Go,0.45,0.05,0.2,space,blue,horizontal,space,3.6008775999653153,None,space,1,0.27231020003091544,None,,,,0,0,0,0,0,37,37,37,140.19703989999834,,,,,,,,,,,,,,,,140.18108059995575,140.19703989999834,140.89636159996735,140.89636159996735,141.39593920001062,141.37986220000312,141.38056349998806,141.39593920001062,141.8454373999848,142.04504429997178,142.04504429997178,142.32979889999842,space,1,0.27231020003091544,None,142.33507119998103,142.8445574999787,143.84373689995846,143.82799580000574,,,,,,,,,,,,,,,,,004,002,2025-04-28_17h54.31.464,Cued GoNogo Task,2024.2.4,60.0039842599661,2025-04-28 17h54.42.237612 +0200,
block/CondBlock1.xlsx,You are about to start a block of type 1 trials.,38,38,0,Go,Go,0.13,0.05,0.2,space,blue,horizontal,space,3.6008775999653153,None,space,1,0.32634989998769015,None,,,,0,0,0,0,0,38,38,38,143.84373689995846,,,,,,,,,,,,,,,,143.8282535999897,143.84373689995846,144.54313080001157,144.54313080001157,145.04274369997438,145.02678640000522,145.0273558999761,145.04274369997438,145.17594589997316,145.35912979999557,145.35912979999557,145.69382599997334,space,1,0.32634989998769015,None,145.69875360000879,146.20835089997854,147.20754470000975,147.192013199965,,,,,,,,,,,,,,,,,004,002,2025-04-28_17h54.31.464,Cued GoNogo Task,2024.2.4,60.0039842599661,2025-04-28 17h54.42.237612 +0200,
block/CondBlock1.xlsx,You are about to start a block of type 1 trials.,39,39,0,Go,Go,0.46,0.2,0.05,space,blue,vertical,space,3.6008775999653153,None,space,1,0.3170625999919139,None,,,,0,0,0,0,0,39,39,39,147.20754470000975,,,,,,,,,,,,,,,,147.19229259999702,147.20754470000975,147.90709799999604,147.90709799999604,148.40676029998576,148.3908422999666,148.39158569998108,148.40676029998576,148.87302319996525,149.05625759996474,149.05625759996474,149.39035780000268,space,1,0.3170625999919139,None,149.39516889996594,149.90543919999618,150.9045286999899,150.88858849997632,,,,,,,,,,,,,,,,,004,002,2025-04-28_17h54.31.464,Cued GoNogo Task,2024.2.4,60.0039842599661,2025-04-28 17h54.42.237612 +0200,
block/CondBlock1.xlsx,You are about to start a block of type 1 trials.,40,40,0,Go,Go,0.29,0.2,0.05,space,blue,vertical,space,3.6008775999653153,None,space,1,0.2840205999673344,None,,,,0,0,0,0,0,40,40,40,150.9045286999899,,,,,,,,,,,,,,,,150.888831499964,150.9045286999899,151.60414569999557,151.60414569999557,152.10369059996447,152.08769029995892,152.08829019998666,152.10369059996447,152.40331949997926,152.5864736000076,152.5864736000076,152.88768359995447,space,1,0.2840205999673344,None,152.89196269999957,153.40275529999053,154.40172779996647,154.3857267999556,,,,,,,,,,,,,,,,,004,002,2025-04-28_17h54.31.464,Cued GoNogo Task,2024.2.4,60.0039842599661,2025-04-28 17h54.42.237612 +0200,
block/CondBlock1.xlsx,You are about to start a block of type 1 trials.,41,41,0,Go,Go,0.22,0.2,0.05,space,blue,vertical,space,3.6008775999653153,None,space,1,0.37272859999211505,None,,,,0,0,0,0,0,41,41,41,154.40172779996647,,,,,,,,,,,,,,,,154.3859635000117,154.40172779996647,155.10119779995875,155.10119779995875,155.6007955999812,155.5851274000015,155.5859485999681,155.6007955999812,155.83391699998174,156.0171752999886,156.0171752999886,156.40128539997386,space,1,0.37272859999211505,None,156.4065156999859,156.9164295999799,157.91557039995678,157.89974209998036,,,,,,,,,,,,,,,,,004,002,2025-04-28_17h54.31.464,Cued GoNogo Task,2024.2.4,60.0039842599661,2025-04-28 17h54.42.237612 +0200,
block/CondBlock1.xlsx,You are about to start a block of type 1 trials.,42,42,0,Go,Go,0.49,0.2,0.05,space,blue,vertical,space,3.6008775999653153,None,space,1,0.3442112999618985,None,,,,0,0,0,0,0,42,42,42,157.91557039995678,,,,,,,,,,,,,,,,157.90002369997092,157.91557039995678,158.6150053999736,158.6150053999736,159.1144338999875,159.09887859999435,159.09951689996524,159.1144338999875,159.61424869997427,159.79749839997385,159.79749839997385,160.14798249996966,space,1,0.3442112999618985,None,160.1513896000106,160.66316900000675,161.6624715999933,161.64671289996477,,,,,,,,,,,,,,,,,004,002,2025-04-28_17h54.31.464,Cued GoNogo Task,2024.2.4,60.0039842599661,2025-04-28 17h54.42.237612 +0200,
block/CondBlock1.xlsx,You are about to start a block of type 1 trials.,43,43,0,Go,Go,0.2,0.2,0.05,space,blue,vertical,space,3.6008775999653153,None,space,1,0.36771339998813346,None,,,,0,0,0,0,0,43,43,43,161.6624715999933,,,,,,,,,,,,,,,,161.64715330000035,161.6624715999933,162.3618237999617,162.3618237999617,162.861388899968,162.84594520000974,162.84668069996405,162.861388899968,163.0612497999682,163.26119489996927,163.26119489996927,163.64579919999233,space,1,0.36771339998813346,None,163.65059979999205,164.16039059998002,165.1594164999551,165.14406659995439,,,,,,,,,,,,,,,,,004,002,2025-04-28_17h54.31.464,Cued GoNogo Task,2024.2.4,60.0039842599661,2025-04-28 17h54.42.237612 +0200,
block/CondBlock1.xlsx,You are about to start a block of type 1 trials.,44,44,0,Go,Go,0.3,0.05,0.2,space,blue,horizontal,space,3.6008775999653153,None,space,1,0.44268400000873953,None,,,,0,0,0,0,0,44,44,44,165.1594164999551,,,,,,,,,,,,,,,,165.144453099987,165.1594164999551,165.85906099999556,165.85906099999556,166.35849259997485,166.34244350000517,166.34319869999308,166.35849259997485,166.65838039998198,166.8581320999656,166.8581320999656,167.30898189998697,space,1,0.44268400000873953,None,167.31287369999336,167.82401779998327,168.82311639998807,168.80732119997265,,,,,,,,,,,,,,,,,004,002,2025-04-28_17h54.31.464,Cued GoNogo Task,2024.2.4,60.0039842599661,2025-04-28 17h54.42.237612 +0200,
block/CondBlock1.xlsx,You are about to start a block of type 1 trials.,45,45,0,NoGo,NoGo,0.21,0.05,0.2,none,green,horizontal,space,3.6008775999653153,None,None,1,,,,,,0,0,0,0,0,45,45,45,168.82311639998807,,,,,,,,,,,,,,,,168.8076193999732,168.82311639998807,169.52254579996224,169.52254579996224,170.02237899997272,170.00702459999593,170.00796219997574,170.02237899997272,170.2387783000013,170.4218596999999,170.4218596999999,170.90580279997084,None,1,,,170.90902779996395,171.42120959999738,172.4201738999691,172.40460619999794,170.9215057999827,170.9215057999827,,,,,,,,,,,,,,,004,002,2025-04-28_17h54.31.464,Cued GoNogo Task,2024.2.4,60.0039842599661,2025-04-28 17h54.42.237612 +0200,
block/CondBlock1.xlsx,You are about to start a block of type 1 trials.,46,46,0,NoGo,NoGo,0.45,0.05,0.2,none,blue,horizontal,space,3.6008775999653153,None,None,1,,,,,,0,0,0,0,0,46,46,46,172.4201738999691,,,,,,,,,,,,,,,,172.40505529998336,172.4201738999691,173.11973139998736,173.11973139998736,173.61945769999875,173.6034895000048,173.6043067999999,173.61945769999875,174.06879389996175,174.26879919995554,174.26879919995554,174.75220160000026,None,1,,,174.75260389997857,175.25125879998086,176.25036549998913,176.23466999997618,174.7685002000071,174.7685002000071,,,,,,,,,,,,,,,004,002,2025-04-28_17h54.31.464,Cued GoNogo Task,2024.2.4,60.0039842599661,2025-04-28 17h54.42.237612 +0200,
block/CondBlock1.xlsx,You are about to start a block of type 1 trials.,47,47,0,Go,Go,0.24,0.05,0.2,space,green,horizontal,space,3.6008775999653153,None,space,1,0.4271900999592617,None,,,,0,0,0,0,0,47,47,47,176.25036549998913,,,,,,,,,,,,,,,,176.23525349999545,176.26720669999486,176.96652710001217,176.96652710001217,177.46608320000814,177.45019090001006,177.45096089999424,177.46608320000814,177.7160292000044,177.89910589996725,177.89910589996725,178.33327840000857,space,1,0.4271900999592617,None,178.33741129998816,178.84826800000155,179.84757649997482,179.8315913999686,,,,,,,,,,,,,,,,,004,002,2025-04-28_17h54.31.464,Cued GoNogo Task,2024.2.4,60.0039842599661,2025-04-28 17h54.42.237612 +0200,
block/CondBlock1.xlsx,You are about to start a block of type 1 trials.,48,48,0,NoGo,NoGo,0.15,0.2,0.05,none,blue,vertical,space,3.6008775999653153,None,None,1,,,,,,0,0,0,0,0,48,48,48,179.84757649997482,,,,,,,,,,,,,,,,179.83194289996754,179.84757649997482,180.54695139999967,180.54695139999967,181.0465564999613,181.03074099996593,181.0314861999941,181.0465564999613,181.1963378000073,181.3962103999802,181.3962103999802,181.87999719998334,None,1,,,181.88269959995523,182.39538429997629,183.3945309999981,183.37883149995469,181.8958849000046,181.8958849000046,,,,,,,,,,,,,,,004,002,2025-04-28_17h54.31.464,Cued GoNogo Task,2024.2.4,60.0039842599661,2025-04-28 17h54.42.237612 +0200,
block/CondBlock1.xlsx,You are about to start a block of type 1 trials.,49,49,0,Go,Go,0.12,0.05,0.2,space,blue,horizontal,space,3.6008775999653153,None,space,1,0.30312579998280853,None,,,,0,0,0,0,0,49,49,49,183.3945309999981,,,,,,,,,,,,,,,,183.37905909999972,183.3945309999981,184.0939714999986,184.0939714999986,184.59348069998669,184.57737319997977,184.5778972999542,184.59348069998669,184.7269146000035,184.9100847999798,184.9100847999798,185.22818499995628,space,1,0.30312579998280853,None,185.23131229996216,185.74275299999863,186.74188980000326,186.7258941999753,,,,,,,,,,,,,,,,,004,002,2025-04-28_17h54.31.464,Cued GoNogo Task,2024.2.4,60.0039842599661,2025-04-28 17h54.42.237612 +0200,
block/CondBlock1.xlsx,You are about to start a block of type 1 trials.,50,50,0,Go,Go,0.22,0.2,0.05,space,green,vertical,space,3.6008775999653153,None,space,1,0.3118023000424728,None,,,,0,0,0,0,0,50,50,50,186.74188980000326,,,,,,,,,,,,,,,,186.7261777999811,186.74188980000326,187.44127449998632,187.44127449998632,187.94079879997298,187.92458920000354,187.92515609995462,187.94079879997298,188.17395209998358,188.3574135999661,188.3574135999661,188.6751413999591,space,1,0.3118023000424728,None,188.6794888000004,189.189836799982,190.1891327999765,190.17283840000164,,,,,,,,,,,,,,,,,004,002,2025-04-28_17h54.31.464,Cued GoNogo Task,2024.2.4,60.0039842599661,2025-04-28 17h54.42.237612 +0200,
block/CondBlock1.xlsx,You are about to start a block of type 1 trials.,51,51,0,Go,Go,0.28,0.05,0.2,space,green,horizontal,space,3.6008775999653153,None,space,1,0.37404390005394816,None,,,,0,0,0,0,0,51,51,51,190.1891327999765,,,,,,,,,,,,,,,,190.17307580000488,190.1891327999765,190.8885178999626,190.8885178999626,191.38790749997133,191.3719172999845,191.37245009996695,191.38790749997133,191.67104639997706,191.85442180000246,191.85442180000246,192.2389234000002,space,1,0.37404390005394816,None,192.2440282999887,192.75369350000983,193.75260229996638,193.73725859995466,,,,,,,,,,,,,,,,,004,002,2025-04-28_17h54.31.464,Cued GoNogo Task,2024.2.4,60.0039842599661,2025-04-28 17h54.42.237612 +0200,
block/CondBlock1.xlsx,You are about to start a block of type 1 trials.,52,52,0,Go,Go,0.23,0.2,0.05,space,green,vertical,space,3.6008775999653153,None,space,1,0.3978454999742098,None,,,,0,0,0,0,0,52,52,52,193.75260229996638,,,,,,,,,,,,,,,,193.73769659997197,193.75260229996638,194.4520549000008,194.4520549000008,194.95173709996743,194.93568019999657,194.9363013000111,194.95173709996743,195.18492679996416,195.36810610000975,195.36810610000975,195.76965549995657,space,1,0.3978454999742098,None,195.77553069998976,196.28384559997357,197.28317369997967,197.26741579995723,,,,,,,,,,,,,,,,,004,002,2025-04-28_17h54.31.464,Cued GoNogo Task,2024.2.4,60.0039842599661,2025-04-28 17h54.42.237612 +0200,
block/CondBlock1.xlsx,You are about to start a block of type 1 trials.,53,53,0,Go,Go,0.22,0.05,0.2,space,green,horizontal,space,3.6008775999653153,None,space,1,0.3861705000163056,None,,,,0,0,0,0,0,53,53,53,197.28317369997967,,,,,,,,,,,,,,,,197.26773299998604,197.28317369997967,197.98254999995697,197.98254999995697,198.4821157999686,198.46604129998013,198.46657119999873,198.4821157999686,198.71525790001033,198.89851369999815,198.89851369999815,199.29952299996512,space,1,0.3861705000163056,None,199.3040367999929,199.81429179996485,200.81361499999184,200.79750769998645,,,,,,,,,,,,,,,,,004,002,2025-04-28_17h54.31.464,Cued GoNogo Task,2024.2.4,60.0039842599661,2025-04-28 17h54.42.237612 +0200,
block/CondBlock1.xlsx,You are about to start a block of type 1 trials.,54,54,0,NoGo,NoGo,0.14,0.05,0.2,none,green,horizontal,space,3.6008775999653153,None,None,1,,,,,,0,0,0,0,0,54,54,54,200.81361499999184,,,,,,,,,,,,,,,,200.79780969995772,200.81361499999184,201.51295509998454,201.51295509998454,202.01257839996833,201.99692020000657,201.9978574999841,202.01257839996833,202.16257049998967,202.345749399974,202.345749399974,202.82942829997046,None,1,,,202.83245190000162,203.34482800000114,204.3440030000056,204.3282954999595,202.8452038000105,202.8452038000105,,,,,,,,,,,,,,,004,002,2025-04-28_17h54.31.464,Cued GoNogo Task,2024.2.4,60.0039842599661,2025-04-28 17h54.42.237612 +0200,
block/CondBlock1.xlsx,You are about to start a block of type 1 trials.,55,55,0,Go,Go,0.15,0.2,0.05,space,blue,vertical,space,3.6008775999653153,None,space,1,0.3203485999838449,None,,,,0,0,0,0,0,55,55,55,204.3440030000056,,,,,,,,,,,,,,,,204.3286405999679,204.3440030000056,205.0433151999605,205.0433151999605,205.54303219995927,205.52695009997115,205.52752169995802,205.54303219995927,205.6930951999966,205.89279249997344,205.89279249997344,206.22684439999284,space,1,0.3203485999838449,None,206.23123729997315,206.741970699979,207.74124399997527,207.72580640000524,,,,,,,,,,,,,,,,,004,002,2025-04-28_17h54.31.464,Cued GoNogo Task,2024.2.4,60.0039842599661,2025-04-28 17h54.42.237612 +0200,
block/CondBlock1.xlsx,You are about to start a block of type 1 trials.,56,56,0,Go,Go,0.47,0.2,0.05,space,blue,vertical,space,3.6008775999653153,None,space,1,0.3907827000366524,None,,,,0,0,0,0,0,56,56,56,207.74124399997527,,,,,,,,,,,,,,,,207.7261632999871,207.74124399997527,208.44079029996647,208.44079029996647,208.94031979999272,208.92435679998016,208.9251416999614,208.94031979999272,209.42313219996868,209.60629679996055,209.60629679996055,210.0070823999704,space,1,0.3907827000366524,None,210.0121448999853,210.52244199998677,211.52159859996755,211.5060520999832,,,,,,,,,,,,,,,,,004,002,2025-04-28_17h54.31.464,Cued GoNogo Task,2024.2.4,60.0039842599661,2025-04-28 17h54.42.237612 +0200,
block/CondBlock1.xlsx,You are about to start a block of type 1 trials.,57,57,0,NoGo,NoGo,0.42,0.2,0.05,none,green,vertical,space,3.6008775999653153,None,None,1,,,,,,0,0,0,0,0,57,57,57,211.52159859996755,,,,,,,,,,,,,,,,211.50648139999248,211.52159859996755,212.22085979999974,212.22085979999974,212.72053900000174,212.70423069997923,212.70469789998606,212.72053900000174,213.1536184999859,213.33664289995795,213.33664289995795,213.82021979999263,None,1,,,213.82237760000862,214.33578610001132,215.33492649998516,215.31887229997665,213.83623650000663,213.83623650000663,,,,,,,,,,,,,,,004,002,2025-04-28_17h54.31.464,Cued GoNogo Task,2024.2.4,60.0039842599661,2025-04-28 17h54.42.237612 +0200,
block/CondBlock1.xlsx,You are about to start a block of type 1 trials.,58,58,0,Go,Go,0.22,0.05,0.2,space,green,horizontal,space,3.6008775999653153,None,space,1,0.3339951999951154,None,,,,0,0,0,0,0,58,58,58,215.33492649998516,,,,,,,,,,,,,,,,215.31909790000645,215.33492649998516,216.0342405999545,216.0342405999545,216.53388189995894,216.51795239996864,216.51852799998596,216.53388189995894,216.7671436999808,216.95041679998394,216.95041679998394,217.3013573999633,space,1,0.3339951999951154,None,217.30561380001018,217.81632929999614,218.81533599999966,218.7998105000006,,,,,,,,,,,,,,,,,004,002,2025-04-28_17h54.31.464,Cued GoNogo Task,2024.2.4,60.0039842599661,2025-04-28 17h54.42.237612 +0200,
block/CondBlock1.xlsx,You are about to start a block of type 1 trials.,59,59,0,Go,Go,0.3,0.2,0.05,space,blue,vertical,space,3.6008775999653153,None,space,1,0.32334220001939684,None,,,,0,0,0,0,0,59,59,59,218.81533599999966,,,,,,,,,,,,,,,,218.8002430999768,218.81533599999966,219.51487590000033,219.51487590000033,220.0145016000024,219.99880509998184,219.99965969996992,220.0145016000024,220.31423979997635,220.51407499995548,220.51407499995548,220.8481366999913,space,1,0.32334220001939684,None,220.85192699998152,221.36338840000099,222.3625202999683,222.34640370000852,,,,,,,,,,,,,,,,,004,002,2025-04-28_17h54.31.464,Cued GoNogo Task,2024.2.4,60.0039842599661,2025-04-28 17h54.42.237612 +0200,
block/CondBlock1.xlsx,You are about to start a block of type 1 trials.,60,60,0,NoGo,NoGo,0.24,0.2,0.05,none,blue,vertical,space,3.6008775999653153,None,None,1,,,,,,0,0,0,0,0,60,60,60,222.3625202999683,,,,,,,,,,,,,,,,222.3466590999742,222.3625202999683,223.06191920000128,223.06191920000128,223.56159920000937,223.54576469998574,223.54660389997298,223.56159920000937,223.81134459999157,223.99451869999757,223.99451869999757,224.47825359995477,None,1,,,224.48094879998825,224.993747600005,225.9928024999681,225.97711629996775,224.49407739995513,224.49407739995513,,,,,,,,,,,,,,,004,002,2025-04-28_17h54.31.464,Cued GoNogo Task,2024.2.4,60.0039842599661,2025-04-28 17h54.42.237612 +0200,
block/CondBlock1.xlsx,You are about to start a block of type 1 trials.,61,61,0,NoGo,NoGo,0.1,0.2,0.05,none,green,vertical,space,3.6008775999653153,None,None,1,,,,,,0,0,0,0,0,61,61,61,225.9928024999681,,,,,,,,,,,,,,,,225.9774255999946,225.9928024999681,226.69247229996836,226.69247229996836,227.19200839998666,227.17594689998077,227.17670219996944,227.19200839998666,227.29178420000244,227.49180349998642,227.49180349998642,227.9752562000067,None,1,,,227.97593499999493,228.4908630999853,229.4899632000015,229.4740002999897,227.99135530000785,227.99135530000785,,,,,,,,,,,,,,,004,002,2025-04-28_17h54.31.464,Cued GoNogo Task,2024.2.4,60.0039842599661,2025-04-28 17h54.42.237612 +0200,
block/CondBlock1.xlsx,You are about to start a block of type 1 trials.,62,62,0,Go,Go,0.45,0.05,0.2,space,blue,horizontal,space,3.6008775999653153,None,space,1,0.3229734000051394,None,,,,0,0,0,0,0,62,62,62,229.4899632000015,,,,,,,,,,,,,,,,229.4742556999554,229.4899632000015,230.18954099999974,230.18954099999974,230.68921360000968,230.6735195000074,230.67430620000232,230.68921360000968,231.13866429997142,231.338430600008,231.338430600008,231.67261800001143,space,1,0.3229734000051394,None,231.67648689995985,232.18781179998768,233.1868619999732,233.17117059999146,,,,,,,,,,,,,,,,,004,002,2025-04-28_17h54.31.464,Cued GoNogo Task,2024.2.4,60.0039842599661,2025-04-28 17h54.42.237612 +0200,
block/CondBlock1.xlsx,You are about to start a block of type 1 trials.,63,63,0,Go,Go,0.1,0.05,0.2,space,green,horizontal,space,3.6008775999653153,None,space,1,0.4320358000113629,None,,,,0,0,0,0,0,63,63,63,233.1868619999732,,,,,,,,,,,,,,,,233.1715942999581,233.1868619999732,233.88638799998444,233.88638799998444,234.38591610000003,234.37048280000454,234.37143930001184,234.38591610000003,234.48586620000424,234.68580079998355,234.68580079998355,235.12172559997998,space,1,0.4320358000113629,None,235.12646969995694,235.6350517999963,236.63418900000397,236.61878520000027,,,,,,,,,,,,,,,,,004,002,2025-04-28_17h54.31.464,Cued GoNogo Task,2024.2.4,60.0039842599661,2025-04-28 17h54.42.237612 +0200,
block/CondBlock1.xlsx,You are about to start a block of type 1 trials.,64,64,0,Go,Go,0.19,0.05,0.2,space,blue,horizontal,space,3.6008775999653153,None,space,1,0.3574052000185475,None,,,,0,0,0,0,0,64,64,64,236.63418900000397,,,,,,,,,,,,,,,,236.61925039999187,236.63418900000397,237.33352439996088,237.33352439996088,237.83307539997622,237.81727199995657,237.81786319997627,237.83307539997622,238.0329713000101,238.2161093999748,238.2161093999748,238.58372629998485,space,1,0.3574052000185475,None,238.5877604999696,239.0987718999968,240.09785349998856,240.08203079999657,,,,,,,,,,,,,,,,,004,002,2025-04-28_17h54.31.464,Cued GoNogo Task,2024.2.4,60.0039842599661,2025-04-28 17h54.42.237612 +0200,
block/CondBlock1.xlsx,You are about to start a block of type 1 trials.,65,65,0,Go,Go,0.21,0.2,0.05,space,blue,vertical,space,3.6008775999653153,None,space,1,0.38799220003420487,None,,,,0,0,0,0,0,65,65,65,240.09785349998856,,,,,,,,,,,,,,,,240.08230279997224,240.09785349998856,240.79751259996556,240.79751259996556,241.29680919996463,241.2812191999983,241.28220849996433,241.29680919996463,241.5135549000115,241.69664069998544,241.69664069998544,242.09748719999334,space,1,0.38799220003420487,None,242.10108369996306,242.61279179999838,243.61165249999613,243.5959876999841,,,,,,,,,,,,,,,,,004,002,2025-04-28_17h54.31.464,Cued GoNogo Task,2024.2.4,60.0039842599661,2025-04-28 17h54.42.237612 +0200,
block/CondBlock1.xlsx,You are about to start a block of type 1 trials.,66,66,0,Go,Go,0.18,0.05,0.2,space,blue,horizontal,space,3.6008775999653153,None,space,1,0.44412439997540787,None,,,,0,0,0,0,0,66,66,66,243.61165249999613,,,,,,,,,,,,,,,,243.59631950000767,243.61165249999613,244.31122589996085,244.31122589996085,244.8108513999614,244.79469299997436,244.7953725999687,244.8108513999614,244.99387740000384,245.17700829997193,245.17700829997193,245.62807799997972,space,1,0.44412439997540787,None,245.63260929996613,246.1430000999826,247.14218029996846,247.12641849997453,,,,,,,,,,,,,,,,,004,002,2025-04-28_17h54.31.464,Cued GoNogo Task,2024.2.4,60.0039842599661,2025-04-28 17h54.42.237612 +0200,
block/CondBlock1.xlsx,You are about to start a block of type 1 trials.,67,67,0,Go,Go,0.29,0.2,0.05,space,green,vertical,space,3.6008775999653153,None,space,1,0.3258522999822162,None,,,,0,0,0,0,0,67,67,67,247.14218029996846,,,,,,,,,,,,,,,,247.12676909996662,247.14218029996846,247.8414930999861,247.8414930999861,248.34115699998802,248.32552449998911,248.32623639999656,248.34115699998802,248.64091289998032,248.82412099995418,248.82412099995418,249.15862219996052,space,1,0.3258522999822162,None,249.163789299957,249.67331370001193,250.67252029996598,250.65690499998163,,,,,,,,,,,,,,,,,004,002,2025-04-28_17h54.31.464,Cued GoNogo Task,2024.2.4,60.0039842599661,2025-04-28 17h54.42.237612 +0200,
block/CondBlock1.xlsx,You are about to start a block of type 1 trials.,68,68,0,NoGo,NoGo,0.24,0.2,0.05,none,blue,vertical,space,3.6008775999653153,None,None,1,,,,,,0,0,0,0,0,68,68,68,250.67252029996598,,,,,,,,,,,,,,,,250.65729979996104,250.67252029996598,251.3727029999718,251.3727029999718,251.8715838000062,251.85599780001212,251.85677859996213,251.8715838000062,252.12137099995743,252.3045759999659,252.3045759999659,252.78847430000314,None,1,,,252.7915586999734,253.30383309995523,,254.30304159998195,252.80402370000957,252.80402370000957,,,,,,,,,,,,,,,004,002,2025-04-28_17h54.31.464,Cued GoNogo Task,2024.2.4,60.0039842599661,2025-04-28 17h54.42.237612 +0200,
block/CondBlock1.xlsx,You are about to start a block of type 1 trials.,69,69,0,Go,Go,0.27,0.05,0.2,space,green,horizontal,space,3.6008775999653153,None,space,1,0.43697729997802526,None,,,,0,0,0,0,0,69,69,69,254.3194485999993,,,,,,,,,,,,,,,,254.30333729996346,254.3194485999993,255.00238819996594,255.018957399996,255.50188419996994,255.48609439999564,255.48717099998612,255.50188419996994,255.78503559995443,255.9681975999847,255.9681975999847,256.4194480999722,space,1,0.43697729997802526,None,256.4259124000091,256.9340678000008,257.9331929999753,257.91751269996166,,,,,,,,,,,,,,,,,004,002,2025-04-28_17h54.31.464,Cued GoNogo Task,2024.2.4,60.0039842599661,2025-04-28 17h54.42.237612 +0200,
block/CondBlock1.xlsx,You are about to start a block of type 1 trials.,70,70,0,Go,Go,0.25,0.2,0.05,space,green,vertical,space,3.6008775999653153,None,space,1,0.35077219997765496,None,,,,0,0,0,0,0,70,70,70,257.9331929999753,,,,,,,,,,,,,,,,257.91792569996323,257.9331929999753,258.63264939998044,258.63264939998044,259.13228689995594,259.1163408999564,259.11696949996985,259.13228689995594,259.38219199999,259.5820601999876,259.5820601999876,259.95000999997137,space,1,0.35077219997765496,None,259.9539014999755,260.46445089997724,261.4636612999602,261.4479666999541,,,,,,,,,,,,,,,,,004,002,2025-04-28_17h54.31.464,Cued GoNogo Task,2024.2.4,60.0039842599661,2025-04-28 17h54.42.237612 +0200,
block/CondBlock1.xlsx,You are about to start a block of type 1 trials.,71,71,0,Go,Go,0.28,0.05,0.2,space,green,horizontal,space,3.6008775999653153,None,space,1,0.316167899989523,None,,,,0,0,0,0,0,71,71,71,261.4636612999602,,,,,,,,,,,,,,,,261.4482710000011,261.4636612999602,262.16317179996986,262.16317179996986,262.66268670000136,262.6471869999659,262.64804669999285,262.66268670000136,262.9456356999581,263.145900500007,263.145900500007,263.4646398999612,space,1,0.316167899989523,None,263.4711633999832,263.9782309999573,264.9775830999715,264.96161259996006,,,,,,,,,,,,,,,,,004,002,2025-04-28_17h54.31.464,Cued GoNogo Task,2024.2.4,60.0039842599661,2025-04-28 17h54.42.237612 +0200,
block/CondBlock1.xlsx,You are about to start a block of type 1 trials.,72,72,0,Go,Go,0.14,0.05,0.2,space,blue,horizontal,space,3.6008775999653153,None,space,1,0.3509706000331789,None,,,,0,0,0,0,0,72,72,72,264.9775830999715,,,,,,,,,,,,,,,,264.9619438999798,264.9775830999715,265.67677259998163,265.67677259998163,266.17649469996104,266.1603882999625,266.1609598000068,266.17649469996104,266.3264453999582,266.5094851999893,266.5094851999893,266.8765979000018,space,1,0.3509706000331789,None,266.8791962999967,267.39245039998787,,268.39133219997166,,,,,,,,,,,,,,,,,004,002,2025-04-28_17h54.31.464,Cued GoNogo Task,2024.2.4,60.0039842599661,2025-04-28 17h54.42.237612 +0200,
block/CondBlock1.xlsx,You are about to start a block of type 1 trials.,73,73,0,Go,Go,0.11,0.05,0.2,space,blue,horizontal,space,3.6008775999653153,None,space,1,0.3628845000057481,None,,,,0,0,0,0,0,73,73,73,268.4080123999738,,,,,,,,,,,,,,,,268.391587399994,268.4080123999738,269.0908313000109,269.1074576000101,269.5903156999848,269.57451669999864,269.5752664000029,269.5903156999848,269.7069644999574,269.8901030999841,269.8901030999841,270.25785269995686,space,1,0.3628845000057481,None,270.2640099999844,270.77269610000076,271.7720635999576,271.75588359998073,,,,,,,,,,,,,,,,,004,002,2025-04-28_17h54.31.464,Cued GoNogo Task,2024.2.4,60.0039842599661,2025-04-28 17h54.42.237612 +0200,
block/CondBlock1.xlsx,You are about to start a block of type 1 trials.,74,74,0,Go,Go,0.22,0.2,0.05,space,blue,vertical,space,3.6008775999653153,None,space,1,0.39489370002411306,None,,,,0,0,0,0,0,74,74,74,271.7720635999576,,,,,,,,,,,,,,,,271.756127599976,271.7720635999576,272.47136639995733,272.47136639995733,272.9706445999909,272.9551337999874,272.9558834999916,272.9706445999909,273.2040261999937,273.3871900999802,273.3871900999802,273.78822639997816,space,1,0.39489370002411306,None,273.79325859999517,274.3030540999607,275.3023845999851,275.28668289998313,,,,,,,,,,,,,,,,,004,002,2025-04-28_17h54.31.464,Cued GoNogo Task,2024.2.4,60.0039842599661,2025-04-28 17h54.42.237612 +0200,
block/CondBlock1.xlsx,You are about to start a block of type 1 trials.,75,75,0,Go,Go,0.26,0.05,0.2,space,blue,horizontal,space,3.6008775999653153,None,space,1,0.2627818000037223,None,,,,0,0,0,0,0,75,75,75,275.3023845999851,,,,,,,,,,,,,,,,275.2870027999743,275.3023845999851,276.0018720999942,276.0018720999942,276.5014332999708,276.48540559998946,276.4863202999695,276.5014332999708,276.7679402999929,276.9508324000053,276.9508324000053,277.2189578000107,space,1,0.2627818000037223,None,277.2251158999861,277.7337484000018,278.7327706000069,278.7173579999944,,,,,,,,,,,,,,,,,004,002,2025-04-28_17h54.31.464,Cued GoNogo Task,2024.2.4,60.0039842599661,2025-04-28 17h54.42.237612 +0200,
block/CondBlock1.xlsx,You are about to start a block of type 1 trials.,76,76,0,Go,Go,0.14,0.2,0.05,space,green,vertical,space,3.6008775999653153,None,space,1,0.3005381000111811,None,,,,0,0,0,0,0,76,76,76,278.7327706000069,,,,,,,,,,,,,,,,278.71772069996223,278.7327706000069,279.4322050999617,279.4322050999617,279.9318276999984,279.9163630999974,279.91732339997543,279.9318276999984,280.08170929999324,280.26471879996825,280.26471879996825,280.5825370000093,space,1,0.3005381000111811,None,280.58688789996086,281.097549099999,282.0966295999824,282.08116489998065,,,,,,,,,,,,,,,,,004,002,2025-04-28_17h54.31.464,Cued GoNogo Task,2024.2.4,60.0039842599661,2025-04-28 17h54.42.237612 +0200,
block/CondBlock1.xlsx,You are about to start a block of type 1 trials.,77,77,0,Go,Go,0.18,0.05,0.2,space,green,horizontal,space,3.6008775999653153,None,space,1,0.34378160000778735,None,,,,0,0,0,0,0,77,77,77,282.0966295999824,,,,,,,,,,,,,,,,282.08145519997925,282.0966295999824,282.79606119997334,282.79606119997334,283.29565079999156,283.2795879999758,283.28008900000714,283.29565079999156,283.4790048999712,283.66185029997723,283.66185029997723,284.0130534999771,space,1,0.34378160000778735,None,284.01707709999755,284.5281183999614,285.527082399989,285.5111968999845,,,,,,,,,,,,,,,,,004,002,2025-04-28_17h54.31.464,Cued GoNogo Task,2024.2.4,60.0039842599661,2025-04-28 17h54.42.237612 +0200,
block/CondBlock1.xlsx,You are about to start a block of type 1 trials.,78,78,0,NoGo,NoGo,0.27,0.05,0.2,none,blue,horizontal,space,3.6008775999653153,None,None,1,,,,,,0,0,0,0,0,78,78,78,285.527082399989,,,,,,,,,,,,,,,,285.51146329997573,285.527082399989,286.226557899965,286.226557899965,286.7265653999639,286.7101320999791,286.71068739995826,286.7265653999639,287.00945059995865,287.19237659999635,287.19237659999635,287.67643359996146,None,1,,,287.6794809999992,288.19143999996595,289.1908377999789,289.1748772999854,287.69199259998277,287.69199259998277,,,,,,,,,,,,,,,004,002,2025-04-28_17h54.31.464,Cued GoNogo Task,2024.2.4,60.0039842599661,2025-04-28 17h54.42.237612 +0200,
block/CondBlock1.xlsx,You are about to start a block of type 1 trials.,79,79,0,NoGo,NoGo,0.26,0.2,0.05,none,blue,vertical,space,3.6008775999653153,None,None,1,,,,,,0,0,0,0,0,79,79,79,289.1908377999789,,,,,,,,,,,,,,,,289.17518580000615,289.1908377999789,289.89028029999463,289.89028029999463,290.3899136999971,290.3741508999956,290.37490569998045,290.3899136999971,290.65657849999843,290.8395494999713,290.8395494999713,291.3233346999623,None,1,,,291.32389110000804,291.8387172999792,292.83788579999236,292.8221859000041,291.3390732000116,291.3390732000116,,,,,,,,,,,,,,,004,002,2025-04-28_17h54.31.464,Cued GoNogo Task,2024.2.4,60.0039842599661,2025-04-28 17h54.42.237612 +0200,
block/CondBlock1.xlsx,You are about to start a block of type 1 trials.,80,80,0,Go,Go,0.22,0.2,0.05,space,green,vertical,space,3.6008775999653153,None,space,1,0.3676178000168875,None,,,,0,0,0,0,0,80,80,80,292.83788579999236,,,,,,,,,,,,,,,,292.82250839995686,292.83788579999236,293.53727949998574,293.53727949998574,294.0370079999557,294.02109870000277,294.021966899978,294.0370079999557,294.2701386999688,294.453149799956,294.453149799956,294.8378465999849,space,1,0.3676178000168875,None,294.8426351000089,295.35264800000004,296.35172039997997,296.3361528000096,,,,,,,,,,,,,,,,,004,002,2025-04-28_17h54.31.464,Cued GoNogo Task,2024.2.4,60.0039842599661,2025-04-28 17h54.42.237612 +0200,
block/CondBlock1.xlsx,You are about to start a block of type 1 trials.,81,81,0,Go,Go,0.5,0.2,0.05,space,green,vertical,space,3.6008775999653153,None,space,1,0.4343440000084229,None,,,,0,0,0,0,0,81,81,81,296.35172039997997,,,,,,,,,,,,,,,,296.336564600002,296.35172039997997,297.05127549997997,297.05127549997997,297.5507054000045,297.53494649997447,297.53565239999443,297.5507054000045,298.05020030000014,298.25019309995696,298.25019309995696,298.70126669999445,space,1,0.4343440000084229,None,298.7045317000011,299.21589529997436,300.2152586999582,300.1993076999788,,,,,,,,,,,,,,,,,004,002,2025-04-28_17h54.31.464,Cued GoNogo Task,2024.2.4,60.0039842599661,2025-04-28 17h54.42.237612 +0200,
block/CondBlock1.xlsx,You are about to start a block of type 1 trials.,82,82,0,Go,Go,0.43,0.05,0.2,space,green,horizontal,space,3.6008775999653153,None,space,1,0.366235300025437,None,,,,0,0,0,0,0,82,82,82,300.2152586999582,,,,,,,,,,,,,,,,300.19964659999823,300.2152586999582,300.9145718999789,300.9145718999789,301.41403909999644,301.3982851000037,301.3990540999803,301.41403909999644,301.84703599999193,302.0302730000112,302.0302730000112,302.3988941999851,space,1,0.366235300025437,None,302.4025944999885,302.913089699985,303.91222489997745,303.8962675000075,,,,,,,,,,,,,,,,,004,002,2025-04-28_17h54.31.464,Cued GoNogo Task,2024.2.4,60.0039842599661,2025-04-28 17h54.42.237612 +0200,
block/CondBlock1.xlsx,You are about to start a block of type 1 trials.,83,83,0,Go,Go,0.25,0.2,0.05,space,green,vertical,space,3.6008775999653153,None,space,1,0.35699219995876774,None,,,,0,0,0,0,0,83,83,83,303.91222489997745,,,,,,,,,,,,,,,,303.8965932999854,303.91222489997745,304.6114546000026,304.6114546000026,305.11111579998396,305.09526649996405,305.0959090999677,305.11111579998396,305.3609194000019,305.5607998999767,305.5607998999767,305.92798469995614,space,1,0.35699219995876774,None,305.93062289996305,306.44325159996515,307.4425790999667,307.42667919996893,,,,,,,,,,,,,,,,,004,002,2025-04-28_17h54.31.464,Cued GoNogo Task,2024.2.4,60.0039842599661,2025-04-28 17h54.42.237612 +0200,
block/CondBlock1.xlsx,You are about to start a block of type 1 trials.,84,84,0,NoGo,NoGo,0.14,0.2,0.05,none,green,vertical,space,3.6008775999653153,None,None,1,,,,,,0,0,0,0,0,84,84,84,307.4425790999667,,,,,,,,,,,,,,,,307.4269782999763,307.4425790999667,308.1418873000075,308.1418873000075,308.6415904999594,308.62570489995414,308.6264400999644,308.6415904999594,308.7914690999896,308.9744902999955,308.9744902999955,309.4581939000054,None,1,,,309.4606375999865,309.9569962999667,310.9563714999822,310.9404828000115,309.4740257000085,309.4740257000085,,,,,,,,,,,,,,,004,002,2025-04-28_17h54.31.464,Cued GoNogo Task,2024.2.4,60.0039842599661,2025-04-28 17h54.42.237612 +0200,
block/CondBlock1.xlsx,You are about to start a block of type 1 trials.,85,85,0,Go,Go,0.2,0.05,0.2,space,blue,horizontal,space,3.6008775999653153,None,space,1,0.3054649999830872,None,,,,0,0,0,0,0,85,85,85,310.9563714999822,,,,,,,,,,,,,,,,310.940780600009,310.9729221999878,311.67255059996387,311.67255059996387,312.1719794999808,312.15596860001097,312.15682299999753,312.1719794999808,312.3718395999749,312.5716399999801,312.5716399999801,312.8897124999785,space,1,0.3054649999830872,None,312.894411199959,313.40437979996204,314.4034101999714,314.38769139995566,,,,,,,,,,,,,,,,,004,002,2025-04-28_17h54.31.464,Cued GoNogo Task,2024.2.4,60.0039842599661,2025-04-28 17h54.42.237612 +0200,
block/CondBlock1.xlsx,You are about to start a block of type 1 trials.,86,86,0,Go,Go,0.16,0.2,0.05,space,blue,vertical,space,3.6008775999653153,None,space,1,0.39768290001666173,None,,,,0,0,0,0,0,86,86,86,314.4034101999714,,,,,,,,,,,,,,,,314.38796719996026,314.4034101999714,315.102845299989,315.102845299989,315.6025246999925,315.5866543999873,315.5873370000045,315.6025246999925,315.76896399998805,315.95226280001225,315.95226280001225,316.35324619995663,space,1,0.39768290001666173,None,316.3573780999868,316.8682195000001,317.86727429996245,317.8518195999786,,,,,,,,,,,,,,,,,004,002,2025-04-28_17h54.31.464,Cued GoNogo Task,2024.2.4,60.0039842599661,2025-04-28 17h54.42.237612 +0200,
block/CondBlock1.xlsx,You are about to start a block of type 1 trials.,87,87,0,Go,Go,0.41,0.2,0.05,space,green,vertical,space,3.6008775999653153,None,space,1,0.4188517000293359,None,,,,0,0,0,0,0,87,87,87,317.86727429996245,,,,,,,,,,,,,,,,317.85239229997387,317.86727429996245,318.56673989997944,318.56673989997944,319.0663399999612,319.0502979999874,319.0508476999821,319.0663399999612,319.4828329999582,319.66583339998033,319.66583339998033,320.1001951000071,space,1,0.4188517000293359,None,320.10391309997067,320.61520659999223,,321.61450079997303,,,,,,,,,,,,,,,,,004,002,2025-04-28_17h54.31.464,Cued GoNogo Task,2024.2.4,60.0039842599661,2025-04-28 17h54.42.237612 +0200,
block/CondBlock1.xlsx,You are about to start a block of type 1 trials.,88,88,0,NoGo,NoGo,0.15,0.2,0.05,none,green,vertical,space,3.6008775999653153,None,None,1,,,,,,0,0,0,0,0,88,88,88,321.6309307999909,,,,,,,,,,,,,,,,321.6148564000032,321.6309307999909,322.3136616999982,322.3301460999646,322.813201699988,322.7970086999703,322.79754830000456,322.813201699988,322.96315749996575,323.16302440001164,323.16302440001164,323.64712479995796,None,1,,,323.650522299984,324.1622370000114,325.16126039996743,325.14543899998534,323.6625095999916,323.6625095999916,,,,,,,,,,,,,,,004,002,2025-04-28_17h54.31.464,Cued GoNogo Task,2024.2.4,60.0039842599661,2025-04-28 17h54.42.237612 +0200,
block/CondBlock1.xlsx,You are about to start a block of type 1 trials.,89,89,0,Go,Go,0.24,0.05,0.2,space,blue,horizontal,space,3.6008775999653153,None,space,1,0.26770239998586476,None,,,,0,0,0,0,0,89,89,89,325.16126039996743,,,,,,,,,,,,,,,,325.14582089998294,325.16126039996743,325.86065659997985,325.86065659997985,326.3602375999908,326.3445386000094,326.345324599999,326.3602375999908,326.6099959999556,326.7933264999883,326.7933264999883,327.07765529997414,space,1,0.26770239998586476,None,327.0815894000116,327.59260859998176,328.5917005999945,328.57553319999715,,,,,,,,,,,,,,,,,004,002,2025-04-28_17h54.31.464,Cued GoNogo Task,2024.2.4,60.0039842599661,2025-04-28 17h54.42.237612 +0200,
block/CondBlock1.xlsx,You are about to start a block of type 1 trials.,90,90,0,Go,Go,0.25,0.2,0.05,space,blue,vertical,space,3.6008775999653153,None,space,1,0.3884388000005856,None,,,,0,0,0,0,0,90,90,90,328.5917005999945,,,,,,,,,,,,,,,,328.5757322999998,328.5917005999945,329.29091119999066,329.29091119999066,329.7906887999852,329.7749197999947,329.7759303000057,329.7906887999852,330.0403985999874,330.2402308000019,330.2402308000019,330.64108460000716,space,1,0.3884388000005856,None,330.64588119997643,331.1562773999758,332.15556169999763,332.13988959998824,,,,,,,,,,,,,,,,,004,002,2025-04-28_17h54.31.464,Cued GoNogo Task,2024.2.4,60.0039842599661,2025-04-28 17h54.42.237612 +0200,
block/CondBlock1.xlsx,You are about to start a block of type 1 trials.,91,91,0,Go,Go,0.26,0.05,0.2,space,green,horizontal,space,3.6008775999653153,None,space,1,0.39305930002592504,None,,,,0,0,0,0,0,91,91,91,332.15556169999763,,,,,,,,,,,,,,,,332.1402314999723,332.15556169999763,332.8550301999785,332.8550301999785,333.35451340000145,333.33841520000715,333.3389484999934,333.35451340000145,333.6210421999567,333.8039656999754,333.8039656999754,334.2052044000011,space,1,0.39305930002592504,None,334.20922899997095,334.72011980001116,335.71937359997537,335.70328630000586,,,,,,,,,,,,,,,,,004,002,2025-04-28_17h54.31.464,Cued GoNogo Task,2024.2.4,60.0039842599661,2025-04-28 17h54.42.237612 +0200,
block/CondBlock1.xlsx,You are about to start a block of type 1 trials.,92,92,0,NoGo,NoGo,0.44,0.2,0.05,none,blue,vertical,space,3.6008775999653153,None,None,1,,,,,,0,0,0,0,0,92,92,92,335.71937359997537,,,,,,,,,,,,,,,,335.70362970000133,335.71937359997537,336.41879209998297,336.41879209998297,336.91817640000954,336.90198969998164,336.9023828000063,336.91817640000954,337.3679874999798,337.5520447999588,337.5520447999588,338.0516362999915,None,1,,,338.05448009999236,338.56687209999654,339.56588449998526,339.54982439999003,338.06728219997603,338.06728219997603,,,,,,,,,,,,,,,004,002,2025-04-28_17h54.31.464,Cued GoNogo Task,2024.2.4,60.0039842599661,2025-04-28 17h54.42.237612 +0200,
block/CondBlock1.xlsx,You are about to start a block of type 1 trials.,93,93,0,Go,Go,0.13,0.2,0.05,space,green,vertical,space,3.6008775999653153,None,space,1,0.3478997999918647,None,,,,0,0,0,0,0,93,93,93,339.56588449998526,,,,,,,,,,,,,,,,339.55007659998955,339.56588449998526,340.26548639999237,340.26548639999237,340.7649970999919,340.7489639999694,340.7494677999639,340.7649970999919,340.89838719996624,341.0814330999856,341.0814330999856,341.4321262000012,space,1,0.3478997999918647,None,341.43512809998356,341.9474342999747,342.94661819998873,342.9308732000063,,,,,,,,,,,,,,,,,004,002,2025-04-28_17h54.31.464,Cued GoNogo Task,2024.2.4,60.0039842599661,2025-04-28 17h54.42.237612 +0200,
block/CondBlock1.xlsx,You are about to start a block of type 1 trials.,94,94,0,Go,Go,0.44,0.05,0.2,space,blue,horizontal,space,3.6008775999653153,None,space,1,0.3863218000042252,None,,,,0,0,0,0,0,94,94,94,342.94661819998873,,,,,,,,,,,,,,,,342.9311363999732,342.94661819998873,343.6460708999657,343.6460708999657,344.1457301999908,344.12965999997687,344.1302396999672,344.1457301999908,344.59528129996033,344.7784732999862,344.7784732999862,345.17876679997426,space,1,0.3863218000042252,None,345.1818943999824,345.69422879995545,346.69350930000655,346.67742979998,,,,,,,,,,,,,,,,,004,002,2025-04-28_17h54.31.464,Cued GoNogo Task,2024.2.4,60.0039842599661,2025-04-28 17h54.42.237612 +0200,
block/CondBlock1.xlsx,You are about to start a block of type 1 trials.,95,95,0,Go,Go,0.15,0.2,0.05,space,green,vertical,space,3.6008775999653153,None,None,0,,,,,,0,0,0,0,0,95,95,95,346.69350930000655,,,,,,,,,,,,,,,,346.67773170000874,346.69350930000655,347.39296819997253,347.39296819997253,347.8925077999593,347.87633569998434,347.8767269999953,347.8925077999593,348.0424237999832,348.24222799995914,348.24222799995914,348.7257985000033,None,0,,,348.72919639997417,349.2414192999713,350.2405313999625,350.2244098999654,348.74177129997406,348.74177129997406,,,,,,,,,,,,,,,004,002,2025-04-28_17h54.31.464,Cued GoNogo Task,2024.2.4,60.0039842599661,2025-04-28 17h54.42.237612 +0200,
block/CondBlock1.xlsx,You are about to start a block of type 1 trials.,96,96,0,Go,Go,0.49,0.2,0.05,space,green,vertical,space,3.6008775999653153,None,space,1,0.339446300000418,None,,,,0,0,0,0,0,96,96,96,350.2405313999625,,,,,,,,,,,,,,,,350.2245980000007,350.2405313999625,350.93991199997254,350.93991199997254,351.439580700011,351.42343939997954,351.4238653999637,351.439580700011,351.939128900005,352.12227489997167,352.12227489997167,352.4730579999741,space,1,0.339446300000418,None,352.47581959998934,352.9881544999662,353.9875223999843,353.9713084999821,,,,,,,,,,,,,,,,,004,002,2025-04-28_17h54.31.464,Cued GoNogo Task,2024.2.4,60.0039842599661,2025-04-28 17h54.42.237612 +0200,
block/CondBlock1.xlsx,You are about to start a block of type 1 trials.,97,97,0,Go,Go,0.11,0.2,0.05,space,blue,vertical,space,3.6008775999653153,None,space,1,0.39054910000413656,None,,,,0,0,0,0,0,97,97,97,353.9875223999843,,,,,,,,,,,,,,,,353.9714954000083,353.9875223999843,354.6868661000044,354.6868661000044,355.1864965999848,355.17014609999023,355.1705952999764,355.1864965999848,355.3029672999983,355.48618849995546,355.48618849995546,355.8871892999741,space,1,0.39054910000413656,None,355.8902458999655,356.40244889998576,357.4012503999984,357.3855433999561,,,,,,,,,,,,,,,,,004,002,2025-04-28_17h54.31.464,Cued GoNogo Task,2024.2.4,60.0039842599661,2025-04-28 17h54.42.237612 +0200,
block/CondBlock1.xlsx,You are about to start a block of type 1 trials.,98,98,0,Go,Go,0.26,0.05,0.2,space,green,horizontal,space,3.6008775999653153,None,space,1,0.3142614999669604,None,,,,0,0,0,0,0,98,98,98,357.4012503999984,,,,,,,,,,,,,,,,357.3857388999895,357.4012503999984,358.100885599968,358.100885599968,358.6004374999902,358.5842632999993,358.58472809998784,358.6004374999902,358.86661430000095,359.05019799998263,359.05019799998263,359.3674030000111,space,1,0.3142614999669604,None,359.37018369999714,359.88252469996223,360.8817089999793,360.865519199986,,,,,,,,,,,,,,,,,004,002,2025-04-28_17h54.31.464,Cued GoNogo Task,2024.2.4,60.0039842599661,2025-04-28 17h54.42.237612 +0200,
block/CondBlock1.xlsx,You are about to start a block of type 1 trials.,99,99,0,Go,Go,0.28,0.05,0.2,space,green,horizontal,space,3.6008775999653153,None,space,1,0.31359520001569763,None,,,,0,0,0,0,0,99,99,99,360.8817089999793,,,,,,,,,,,,,,,,360.86570979998214,360.8817089999793,361.58108049997827,361.58108049997827,362.0808393000043,362.0647912999848,362.0652109999792,362.0808393000043,362.3639900999842,362.5469843999599,362.5469843999599,362.86450619995594,space,1,0.31359520001569763,None,362.87018139997963,363.37959460000275,364.3790549999685,364.3628820999875,,,,,,,,,,,,,,,,,004,002,2025-04-28_17h54.31.464,Cued GoNogo Task,2024.2.4,60.0039842599661,2025-04-28 17h54.42.237612 +0200,
block/CondBlock1.xlsx,You are about to start a block of type 1 trials.,0,0,0,,,,,,,,,space,3.6008775999653153,None,,,,,space,1.0422710999846458,None,0,0,0,0,,,,,,,,,,,,,,,,,,,,,,,,,,,,,,,,,,,,,,,,,,,364.37552509998204,364.3790549999685,364.3790549999685,365.4290481999633,space,1.0422710999846458,None,,,,,,,,004,002,2025-04-28_17h54.31.464,Cued GoNogo Task,2024.2.4,60.0039842599661,2025-04-28 17h54.42.237612 +0200,
block/CondBlock2.xlsx,You are about to start a block of type 2 trials.,0,0,0,Go,Go,0.18,0.05,0.2,space,green,horizontal,space,266.400670300005,None,space,1,0.37210149999009445,None,,,,0,1,1,1,0,0,0,0,631.895187999995,,,,,,,,,365.43314239999745,365.4445851999917,365.4445851999917,631.8597317999811,space,266.400670300005,None,631.8929147999734,631.895187999995,632.5751272999914,632.608470999985,633.0747450999916,633.0590215999982,633.0598213999765,633.0747450999916,633.2579200000037,633.4411461999989,633.4411461999989,633.8250335999765,space,1,0.37210149999009445,None,633.8293735999614,634.3404493999551,635.3394501999719,635.3238379000104,,,,,,,,,,,,,,,,,004,002,2025-04-28_17h54.31.464,Cued GoNogo Task,2024.2.4,60.0039842599661,2025-04-28 17h54.42.237612 +0200,
block/CondBlock2.xlsx,You are about to start a block of type 2 trials.,1,1,0,Go,Go,0.2,0.2,0.05,space,green,vertical,space,266.400670300005,None,space,1,0.3390955000068061,None,,,,0,1,1,1,0,1,1,1,635.3394501999719,,,,,,,,,,,,,,,,635.3241349000018,635.3394501999719,636.0389152999851,636.0389152999851,636.5385610999656,636.5224950999836,636.5231180999544,636.5385610999656,636.7384709999897,636.9381366999587,636.9381366999587,637.2889723000117,space,1,0.3390955000068061,None,637.292238999973,637.8044004999683,,638.8034161999822,,,,,,,,,,,,,,,,,004,002,2025-04-28_17h54.31.464,Cued GoNogo Task,2024.2.4,60.0039842599661,2025-04-28 17h54.42.237612 +0200,
block/CondBlock2.xlsx,You are about to start a block of type 2 trials.,2,2,0,Go,Go,0.22,0.05,0.2,space,blue,horizontal,space,266.400670300005,None,space,1,0.4100256999954581,None,,,,0,1,1,1,0,2,2,2,638.8199353999807,,,,,,,,,,,,,,,,638.8036268999567,638.8199353999807,639.5026611000067,639.5194769999944,640.0023357999744,639.9863670999766,639.9870786999818,640.0023357999744,640.2355162999593,640.4186965999543,640.4186965999543,640.8364657000056,space,1,0.4100256999954581,None,640.8405085999984,641.3513680999749,642.3504683999927,642.3346900999895,,,,,,,,,,,,,,,,,004,002,2025-04-28_17h54.31.464,Cued GoNogo Task,2024.2.4,60.0039842599661,2025-04-28 17h54.42.237612 +0200,
block/CondBlock2.xlsx,You are about to start a block of type 2 trials.,3,3,0,Go,Go,0.14,0.05,0.2,space,green,horizontal,space,266.400670300005,None,space,1,0.4113084000418894,None,,,,0,1,1,1,0,3,3,3,642.3504683999927,,,,,,,,,,,,,,,,642.3350450999569,642.3504683999927,643.0499410000048,643.0499410000048,643.5492646999774,643.5332639999688,643.5337417999981,643.5492646999774,643.6992329999921,643.8825841000071,643.8825841000071,644.3000343999593,space,1,0.4113084000418894,None,644.3033061999595,644.8150875999709,645.8141573999892,645.7981689999579,,,,,,,,,,,,,,,,,004,002,2025-04-28_17h54.31.464,Cued GoNogo Task,2024.2.4,60.0039842599661,2025-04-28 17h54.42.237612 +0200,
block/CondBlock2.xlsx,You are about to start a block of type 2 trials.,4,4,0,Go,Go,0.26,0.05,0.2,space,blue,horizontal,space,266.400670300005,None,space,1,0.4142960000317544,None,,,,0,1,1,1,0,4,4,4,645.8141573999892,,,,,,,,,,,,,,,,645.7985277000116,645.8141573999892,646.5138960999902,646.5138960999902,647.0130581999547,646.9969076999696,646.997378,647.0130581999547,647.279591700004,647.4628751999699,647.4628751999699,647.881061299995,space,1,0.4142960000317544,None,647.8863868999761,648.3954718000023,649.394628399983,649.3788872999721,,,,,,,,,,,,,,,,,004,002,2025-04-28_17h54.31.464,Cued GoNogo Task,2024.2.4,60.0039842599661,2025-04-28 17h54.42.237612 +0200,
block/CondBlock2.xlsx,You are about to start a block of type 2 trials.,5,5,0,Go,Go,0.1,0.05,0.2,space,blue,horizontal,space,266.400670300005,None,space,1,0.4171561000403017,None,,,,0,1,1,1,0,5,5,5,649.394628399983,,,,,,,,,,,,,,,,649.3791779999738,649.394628399983,650.0939474999905,650.0939474999905,650.5936029999866,650.5774696999579,650.5781411000062,650.5936029999866,650.6935036999639,650.8933676999877,650.8933676999877,651.3273392000119,space,1,0.4171561000403017,None,651.3311173999682,651.8427346000099,652.8417460999917,652.8258140999824,,,,,,,,,,,,,,,,,004,002,2025-04-28_17h54.31.464,Cued GoNogo Task,2024.2.4,60.0039842599661,2025-04-28 17h54.42.237612 +0200,
block/CondBlock2.xlsx,You are about to start a block of type 2 trials.,6,6,0,NoGo,NoGo,0.3,0.2,0.05,none,green,vertical,space,266.400670300005,None,space,0,0.2656682999804616,None,,,,0,1,1,1,0,6,6,6,652.8417460999917,,,,,,,,,,,,,,,,652.8261055999901,652.8417460999917,653.541194999998,653.541194999998,654.0408691999619,654.0249519000063,654.0258399999584,654.0408691999619,654.3407877999707,654.5402810999658,654.5402810999658,654.809076000005,space,0,0.2656682999804616,None,654.8142998999683,655.3229963000049,656.3221851999988,656.3066463999567,,,,,,,,,,,,,,,,,004,002,2025-04-28_17h54.31.464,Cued GoNogo Task,2024.2.4,60.0039842599661,2025-04-28 17h54.42.237612 +0200,
block/CondBlock2.xlsx,You are about to start a block of type 2 trials.,7,7,0,NoGo,NoGo,0.14,0.05,0.2,none,blue,horizontal,space,266.400670300005,None,None,1,,,,,,0,1,1,1,0,7,7,7,656.3221851999988,,,,,,,,,,,,,,,,656.3069594000117,656.3221851999988,657.0217364999698,657.0217364999698,657.5213323999778,657.5050383000053,657.5056658000103,657.5213323999778,657.6711854999885,657.8542918000021,657.8542918000021,658.338637000008,None,1,,,658.3415463999845,658.8534158999682,659.8526726999553,659.8367461999878,658.353869899991,658.353869899991,,,,,,,,,,,,,,,004,002,2025-04-28_17h54.31.464,Cued GoNogo Task,2024.2.4,60.0039842599661,2025-04-28 17h54.42.237612 +0200,
block/CondBlock2.xlsx,You are about to start a block of type 2 trials.,8,8,0,Go,Go,0.13,0.2,0.05,space,blue,vertical,space,266.400670300005,None,space,1,0.38845869997749105,None,,,,0,1,1,1,0,8,8,8,659.8526726999553,,,,,,,,,,,,,,,,659.8371271999786,659.8526726999553,660.552088299999,660.552088299999,661.0517034999793,661.0357035999768,661.0363431999576,661.0517034999793,661.1850596999866,661.3681475999765,661.3681475999765,661.7685907999985,space,1,0.38845869997749105,None,661.7713775999728,662.2840143999783,663.2832043999806,663.2670253000106,,,,,,,,,,,,,,,,,004,002,2025-04-28_17h54.31.464,Cued GoNogo Task,2024.2.4,60.0039842599661,2025-04-28 17h54.42.237612 +0200,
block/CondBlock2.xlsx,You are about to start a block of type 2 trials.,9,9,0,Go,Go,0.43,0.2,0.05,space,green,vertical,space,266.400670300005,None,space,1,0.3783815000206232,None,,,,0,1,1,1,0,9,9,9,663.2832043999806,,,,,,,,,,,,,,,,663.2672709999606,663.2832043999806,663.9826093000011,663.9826093000011,664.4821691999678,664.4662292999565,664.4668261999614,664.4821691999678,664.9152962999651,665.0983991000103,665.0983991000103,665.4822542999755,space,1,0.3783815000206232,None,665.4855830000015,665.9976382000023,666.9966907000053,666.9808911999571,,,,,,,,,,,,,,,,,004,002,2025-04-28_17h54.31.464,Cued GoNogo Task,2024.2.4,60.0039842599661,2025-04-28 17h54.42.237612 +0200,
block/CondBlock2.xlsx,You are about to start a block of type 2 trials.,10,10,0,Go,Go,0.14,0.2,0.05,space,green,vertical,space,266.400670300005,None,space,1,0.3963432000018656,None,,,,0,1,1,1,0,10,10,10,666.9966907000053,,,,,,,,,,,,,,,,666.9811308999779,666.9966907000053,667.6961821999867,667.6961821999867,668.195876599988,668.1794292999548,668.1798111000098,668.195876599988,668.3456426999765,668.5287725999951,668.5287725999951,668.9294985999586,space,1,0.3963432000018656,None,668.9331748000113,669.4446767999907,670.4440011999686,670.4281060000067,,,,,,,,,,,,,,,,,004,002,2025-04-28_17h54.31.464,Cued GoNogo Task,2024.2.4,60.0039842599661,2025-04-28 17h54.42.237612 +0200,
block/CondBlock2.xlsx,You are about to start a block of type 2 trials.,11,11,0,Go,Go,0.27,0.2,0.05,space,green,vertical,space,266.400670300005,None,space,1,0.3354440000257455,None,,,,0,1,1,1,0,11,11,11,670.4440011999686,,,,,,,,,,,,,,,,670.428464800003,670.4440011999686,671.1434088000096,671.1434088000096,671.643216299999,671.627376599994,671.6281503000064,671.643216299999,671.9261514999671,672.1093346999842,672.1093346999842,672.4600677999551,space,1,0.3354440000257455,None,672.4640032000025,672.9752013999969,673.9744318999583,673.9586370000034,,,,,,,,,,,,,,,,,004,002,2025-04-28_17h54.31.464,Cued GoNogo Task,2024.2.4,60.0039842599661,2025-04-28 17h54.42.237612 +0200,
block/CondBlock2.xlsx,You are about to start a block of type 2 trials.,12,12,0,Go,Go,0.3,0.05,0.2,space,green,horizontal,space,266.400670300005,None,space,1,0.38749300001654774,None,,,,0,1,1,1,0,12,12,12,673.9744318999583,,,,,,,,,,,,,,,,673.95890649996,673.9744318999583,674.6737994999858,674.6737994999858,675.1733517000102,675.1575929999817,675.1582526999991,675.1733517000102,675.4734163999674,675.673020199989,675.673020199989,676.0738535999553,space,1,0.38749300001654774,None,676.077562499966,676.5721442999784,677.5713210999966,677.5558191000018,,,,,,,,,,,,,,,,,004,002,2025-04-28_17h54.31.464,Cued GoNogo Task,2024.2.4,60.0039842599661,2025-04-28 17h54.42.237612 +0200,
block/CondBlock2.xlsx,You are about to start a block of type 2 trials.,13,13,0,Go,Go,0.18,0.2,0.05,space,blue,vertical,space,266.400670300005,None,space,1,0.3476457999786362,None,,,,0,1,1,1,0,13,13,13,677.5713210999966,,,,,,,,,,,,,,,,677.5561476000003,677.5880895999726,678.287506899971,678.287506899971,678.787024899968,678.7713967000018,678.7721430999809,678.787024899968,678.9702473999932,679.1533649999765,679.1533649999765,679.504660799983,space,1,0.3476457999786362,None,679.5090063000098,680.0193696999922,681.0187553999713,681.0027255999739,,,,,,,,,,,,,,,,,004,002,2025-04-28_17h54.31.464,Cued GoNogo Task,2024.2.4,60.0039842599661,2025-04-28 17h54.42.237612 +0200,
block/CondBlock2.xlsx,You are about to start a block of type 2 trials.,14,14,0,Go,Go,0.13,0.2,0.05,space,green,vertical,space,266.400670300005,None,space,1,0.43858080002246425,None,,,,0,1,1,1,0,14,14,14,681.0187553999713,,,,,,,,,,,,,,,,681.0030037999968,681.0187553999713,681.7179448999814,681.7179448999814,682.2175373999635,682.2014973000041,682.2020382999908,682.2175373999635,682.350800199958,682.5341424999642,682.5341424999642,682.984770399984,space,1,0.43858080002246425,None,682.9889220999903,683.499875199981,684.4991261999821,684.4832885999931,,,,,,,,,,,,,,,,,004,002,2025-04-28_17h54.31.464,Cued GoNogo Task,2024.2.4,60.0039842599661,2025-04-28 17h54.42.237612 +0200,
block/CondBlock2.xlsx,You are about to start a block of type 2 trials.,15,15,0,Go,Go,0.18,0.2,0.05,space,blue,vertical,space,266.400670300005,None,space,1,0.42925530002685264,None,,,,0,1,1,1,0,15,15,15,684.4991261999821,,,,,,,,,,,,,,,,684.4836021999945,684.4991261999821,685.1985696000047,685.1985696000047,685.6982331000036,685.6822546999902,685.6829871999798,685.6982331000036,685.881304599985,686.0644819999579,686.0644819999579,686.4985719000106,space,1,0.42925530002685264,None,686.5046914999839,687.0136076000053,688.0129367999616,687.9971299999743,,,,,,,,,,,,,,,,,004,002,2025-04-28_17h54.31.464,Cued GoNogo Task,2024.2.4,60.0039842599661,2025-04-28 17h54.42.237612 +0200,
block/CondBlock2.xlsx,You are about to start a block of type 2 trials.,16,16,0,Go,Go,0.24,0.2,0.05,space,green,vertical,space,266.400670300005,None,space,1,0.3999680999550037,None,,,,0,1,1,1,0,16,16,16,688.0129367999616,,,,,,,,,,,,,,,,687.9974805999664,688.0129367999616,688.7123172999709,688.7123172999709,689.2117894999683,689.19567679998,689.1961210999871,689.2117894999683,689.461689299962,689.6449381999555,689.6449381999555,690.047099599964,space,1,0.3999680999550037,None,690.050346700009,690.5607930999831,691.5598853999982,691.543967399979,,,,,,,,,,,,,,,,,004,002,2025-04-28_17h54.31.464,Cued GoNogo Task,2024.2.4,60.0039842599661,2025-04-28 17h54.42.237612 +0200,
block/CondBlock2.xlsx,You are about to start a block of type 2 trials.,17,17,0,Go,Go,0.26,0.2,0.05,space,blue,vertical,space,266.400670300005,None,space,1,0.30861150001874194,None,,,,0,1,1,1,0,17,17,17,691.5598853999982,,,,,,,,,,,,,,,,691.5442556999624,691.5598853999982,692.2595503999619,692.2595503999619,692.7588905000011,692.7428929999587,692.743426800007,692.7588905000011,693.0251984999632,693.2085195999825,693.2085195999825,693.5262271999964,space,1,0.30861150001874194,None,693.5299408999854,694.0411815000116,695.0404009000049,695.0245109999669,,,,,,,,,,,,,,,,,004,002,2025-04-28_17h54.31.464,Cued GoNogo Task,2024.2.4,60.0039842599661,2025-04-28 17h54.42.237612 +0200,
block/CondBlock2.xlsx,You are about to start a block of type 2 trials.,18,18,0,Go,Go,0.1,0.05,0.2,space,blue,horizontal,space,266.400670300005,None,space,1,0.4500580000458285,None,,,,0,1,1,1,0,18,18,18,695.0404009000049,,,,,,,,,,,,,,,,695.0248169999686,695.0404009000049,695.7397419000044,695.7397419000044,696.2395524999592,696.2236578000011,696.2243290999904,696.2395524999592,696.3394446999882,696.5390781000024,696.5390781000024,696.9912417999585,space,1,0.4500580000458285,None,696.9944770999718,697.5051017999649,698.5042108999914,698.4885629999917,,,,,,,,,,,,,,,,,004,002,2025-04-28_17h54.31.464,Cued GoNogo Task,2024.2.4,60.0039842599661,2025-04-28 17h54.42.237612 +0200,
block/CondBlock2.xlsx,You are about to start a block of type 2 trials.,19,19,0,Go,Go,0.46,0.2,0.05,space,blue,vertical,space,266.400670300005,None,space,1,0.31692710000788793,None,,,,0,1,1,1,0,19,19,19,698.5042108999914,,,,,,,,,,,,,,,,698.4889374999912,698.5042108999914,699.2035666999873,699.2035666999873,699.7033123999718,699.6871566000045,699.6876867999672,699.7033123999718,700.1694542999612,700.3527811999666,700.3527811999666,700.6869514999562,space,1,0.31692710000788793,None,700.6921589999693,701.2022053999826,702.2011315999553,702.1853730999865,,,,,,,,,,,,,,,,,004,002,2025-04-28_17h54.31.464,Cued GoNogo Task,2024.2.4,60.0039842599661,2025-04-28 17h54.42.237612 +0200,
block/CondBlock2.xlsx,You are about to start a block of type 2 trials.,20,20,0,Go,Go,0.3,0.05,0.2,space,blue,horizontal,space,266.400670300005,None,space,1,0.305644299951382,None,,,,0,1,1,1,0,20,20,20,702.2011315999553,,,,,,,,,,,,,,,,702.1856590000098,702.2011315999553,702.9007405999582,702.9007405999582,703.4000950999907,703.3844441999681,703.3851752000046,703.4000950999907,703.6998663999839,703.900004199997,703.900004199997,704.2173860999756,space,1,0.305644299951382,None,704.2211542999721,704.7323817999568,705.7313744999701,705.715798899997,,,,,,,,,,,,,,,,,004,002,2025-04-28_17h54.31.464,Cued GoNogo Task,2024.2.4,60.0039842599661,2025-04-28 17h54.42.237612 +0200,
block/CondBlock2.xlsx,You are about to start a block of type 2 trials.,21,21,0,Go,Go,0.23,0.05,0.2,space,green,horizontal,space,266.400670300005,None,space,1,0.36343299999134615,None,,,,0,1,1,1,0,21,21,21,705.7313744999701,,,,,,,,,,,,,,,,705.716061199957,705.7313744999701,706.4311077999882,706.4311077999882,706.9307378999656,706.9146392999683,706.9151777999941,706.9307378999656,707.1638574000099,707.3469533000025,707.3469533000025,707.7148875999846,space,1,0.36343299999134615,None,707.7187261999934,708.229478299967,709.2287233999814,709.2131359999767,,,,,,,,,,,,,,,,,004,002,2025-04-28_17h54.31.464,Cued GoNogo Task,2024.2.4,60.0039842599661,2025-04-28 17h54.42.237612 +0200,
block/CondBlock2.xlsx,You are about to start a block of type 2 trials.,22,22,0,Go,Go,0.19,0.2,0.05,space,green,vertical,space,266.400670300005,None,space,1,0.3380654000211507,None,,,,0,1,1,1,0,22,22,22,709.2287233999814,,,,,,,,,,,,,,,,709.213450899988,709.2287233999814,709.9280917999567,709.9280917999567,710.4276824999833,710.4117212999845,710.4126549999928,710.4276824999833,710.627509199956,710.8107542999787,710.8107542999787,711.1613968999591,space,1,0.3380654000211507,None,711.1651758999797,711.6765844000038,712.6758264999953,712.65994459996,,,,,,,,,,,,,,,,,004,002,2025-04-28_17h54.31.464,Cued GoNogo Task,2024.2.4,60.0039842599661,2025-04-28 17h54.42.237612 +0200,
block/CondBlock2.xlsx,You are about to start a block of type 2 trials.,23,23,0,NoGo,NoGo,0.41,0.2,0.05,none,blue,vertical,space,266.400670300005,None,None,1,,,,,,0,1,1,1,0,23,23,23,712.6758264999953,,,,,,,,,,,,,,,,712.660201199993,712.6758264999953,713.37549820001,713.37549820001,713.874822599988,713.859026799968,713.8596673999564,713.874822599988,714.2913317999919,714.4744719999726,714.4744719999726,714.9579288999666,None,1,,,714.9600525999558,715.4569300999865,716.4560236000107,716.4401617000112,714.9740093,714.9740093,,,,,,,,,,,,,,,004,002,2025-04-28_17h54.31.464,Cued GoNogo Task,2024.2.4,60.0039842599661,2025-04-28 17h54.42.237612 +0200,
block/CondBlock2.xlsx,You are about to start a block of type 2 trials.,24,24,0,Go,Go,0.17,0.2,0.05,space,blue,vertical,space,266.400670300005,None,space,1,0.34352999995462596,None,,,,0,1,1,1,0,24,24,24,716.4560236000107,,,,,,,,,,,,,,,,716.4404435000033,716.4727474999963,717.1721919999691,717.1721919999691,717.671728699992,717.6558346999809,717.6564924999839,717.671728699992,717.8550134999678,718.0382017999655,718.0382017999655,718.3889098999789,space,1,0.34352999995462596,None,718.3923858999624,718.9040410000016,719.9033530000015,719.887307099998,,,,,,,,,,,,,,,,,004,002,2025-04-28_17h54.31.464,Cued GoNogo Task,2024.2.4,60.0039842599661,2025-04-28 17h54.42.237612 +0200,
block/CondBlock2.xlsx,You are about to start a block of type 2 trials.,25,25,0,Go,Go,0.27,0.05,0.2,space,blue,horizontal,space,266.400670300005,None,space,1,0.348744299961254,None,,,,0,1,1,1,0,25,25,25,719.9033530000015,,,,,,,,,,,,,,,,719.8875407999731,719.9033530000015,720.6028585999738,720.6028585999738,721.1024118000059,721.0862655999954,721.0869545000023,721.1024118000059,721.385438599973,721.5684836999862,721.5684836999862,721.9202611999935,space,1,0.348744299961254,None,721.9255510999938,722.4345895999577,723.4338935999549,723.4184913999634,,,,,,,,,,,,,,,,,004,002,2025-04-28_17h54.31.464,Cued GoNogo Task,2024.2.4,60.0039842599661,2025-04-28 17h54.42.237612 +0200,
block/CondBlock2.xlsx,You are about to start a block of type 2 trials.,26,26,0,Go,Go,0.26,0.05,0.2,space,green,horizontal,space,266.400670300005,None,space,1,0.4108443000004627,None,,,,0,1,1,1,0,26,26,26,723.4338935999549,,,,,,,,,,,,,,,,723.4189762999886,723.4338935999549,724.1332559000002,724.1332559000002,724.6327665999997,724.6164941999596,724.6171037000022,724.6327665999997,724.8992081999895,725.082283900003,725.082283900003,725.4998676999821,space,1,0.4108443000004627,None,725.5045457999804,726.015008599963,727.0141137999599,726.9985350999632,,,,,,,,,,,,,,,,,004,002,2025-04-28_17h54.31.464,Cued GoNogo Task,2024.2.4,60.0039842599661,2025-04-28 17h54.42.237612 +0200,
block/CondBlock2.xlsx,You are about to start a block of type 2 trials.,27,27,0,Go,Go,0.22,0.2,0.05,space,green,vertical,space,266.400670300005,None,space,1,0.35097579995635897,None,,,,0,1,1,1,0,27,27,27,727.0141137999599,,,,,,,,,,,,,,,,726.9988328999607,727.0141137999599,727.7135197999887,727.7135197999887,728.2129876000108,728.1972495999653,728.1977634999785,728.2129876000108,728.4462119999807,728.6296053999686,728.6296053999686,728.9973558000056,space,1,0.35097579995635897,None,729.0014822999947,729.5121613999945,730.5111968999845,730.4956182999886,,,,,,,,,,,,,,,,,004,002,2025-04-28_17h54.31.464,Cued GoNogo Task,2024.2.4,60.0039842599661,2025-04-28 17h54.42.237612 +0200,
block/CondBlock2.xlsx,You are about to start a block of type 2 trials.,28,28,0,Go,Go,0.19,0.05,0.2,space,blue,horizontal,space,266.400670300005,None,space,1,0.3446941999718547,None,,,,0,1,1,1,0,28,28,28,730.5111968999845,,,,,,,,,,,,,,,,730.4958811000106,730.5111968999845,731.2106924999971,731.2106924999971,731.7101902999566,731.6941764999647,731.6947819999768,731.7101902999566,731.91011539998,732.0933815999888,732.0933815999888,732.4445134999696,space,1,0.3446941999718547,None,732.4486959999776,732.9590159999789,733.9584344999748,733.94272739999,,,,,,,,,,,,,,,,,004,002,2025-04-28_17h54.31.464,Cued GoNogo Task,2024.2.4,60.0039842599661,2025-04-28 17h54.42.237612 +0200,
block/CondBlock2.xlsx,You are about to start a block of type 2 trials.,29,29,0,Go,Go,0.18,0.05,0.2,space,blue,horizontal,space,266.400670300005,None,space,1,0.29669129999820143,None,,,,0,1,1,1,0,29,29,29,733.9584344999748,,,,,,,,,,,,,,,,733.943162999989,733.9584344999748,734.6577393999905,734.6577393999905,735.157440799987,735.1414467999712,735.1422638999647,735.157440799987,735.3405948999571,735.523807599966,735.523807599966,735.8246180999558,space,1,0.29669129999820143,None,735.8280807999545,736.3396828999976,737.3389580000076,737.3228812000016,,,,,,,,,,,,,,,,,004,002,2025-04-28_17h54.31.464,Cued GoNogo Task,2024.2.4,60.0039842599661,2025-04-28 17h54.42.237612 +0200,
block/CondBlock2.xlsx,You are about to start a block of type 2 trials.,30,30,0,NoGo,NoGo,0.23,0.2,0.05,none,blue,vertical,space,266.400670300005,None,None,1,,,,,,0,1,1,1,0,30,30,30,737.3389580000076,,,,,,,,,,,,,,,,737.3231517999666,737.3389580000076,738.0382017999655,738.0382017999655,738.5378730999655,738.5222135999938,738.5228624999872,738.5378730999655,738.771021499997,738.9541937999893,738.9541937999893,739.4379008999676,None,1,,,739.4403794999816,739.9533411999582,740.9528225999675,740.9369558999897,739.4538201999967,739.4538201999967,,,,,,,,,,,,,,,004,002,2025-04-28_17h54.31.464,Cued GoNogo Task,2024.2.4,60.0039842599661,2025-04-28 17h54.42.237612 +0200,
block/CondBlock2.xlsx,You are about to start a block of type 2 trials.,31,31,0,Go,Go,0.43,0.2,0.05,space,green,vertical,space,266.400670300005,None,space,1,0.2849591000122018,None,,,,0,1,1,1,0,31,31,31,740.9528225999675,,,,,,,,,,,,,,,,740.9372990999836,740.9528225999675,741.6519870999618,741.6519870999618,742.1516042999574,742.1356606999761,742.1362557999673,742.1516042999574,742.5846471000114,742.7677733000019,742.7677733000019,743.0689236999606,space,1,0.2849591000122018,None,743.0731208999641,743.5838437000057,744.5830281999661,744.5672797999578,,,,,,,,,,,,,,,,,004,002,2025-04-28_17h54.31.464,Cued GoNogo Task,2024.2.4,60.0039842599661,2025-04-28 17h54.42.237612 +0200,
block/CondBlock2.xlsx,You are about to start a block of type 2 trials.,32,32,0,Go,Go,0.13,0.05,0.2,space,blue,horizontal,space,266.400670300005,None,space,1,0.3069135000114329,None,,,,0,1,1,1,0,32,32,32,744.5830281999661,,,,,,,,,,,,,,,,744.5676820999943,744.5830281999661,745.2824327999842,745.2824327999842,745.7820572999772,745.7660521999933,745.7667154999799,745.7820572999772,745.9153157999972,746.0985727999941,746.0985727999941,746.4157821999979,space,1,0.3069135000114329,None,746.4201576999621,746.9309629999916,747.9302005000063,747.9142087000073,,,,,,,,,,,,,,,,,004,002,2025-04-28_17h54.31.464,Cued GoNogo Task,2024.2.4,60.0039842599661,2025-04-28 17h54.42.237612 +0200,
block/CondBlock2.xlsx,You are about to start a block of type 2 trials.,33,33,0,Go,Go,0.45,0.05,0.2,space,green,horizontal,space,266.400670300005,None,space,1,0.30621430004248396,None,,,,0,1,1,1,0,33,33,33,747.9302005000063,,,,,,,,,,,,,,,,747.9144388999557,747.9302005000063,748.6296516999719,748.6296516999719,749.1291017999756,749.1134680999676,749.1142833000049,749.1291017999756,749.5788138000062,749.778900699981,749.778900699981,750.0962436000118,space,1,0.30621430004248396,None,750.0966846999945,750.6114700000035,751.6114306999953,751.5948867999832,,,,,,,,,,,,,,,,,004,002,2025-04-28_17h54.31.464,Cued GoNogo Task,2024.2.4,60.0039842599661,2025-04-28 17h54.42.237612 +0200,
block/CondBlock2.xlsx,You are about to start a block of type 2 trials.,34,34,0,Go,Go,0.14,0.2,0.05,space,blue,vertical,space,266.400670300005,None,space,1,0.39981109998188913,None,,,,0,1,1,1,0,34,34,34,751.6114306999953,,,,,,,,,,,,,,,,751.595261599985,751.6114306999953,752.3098612999893,752.3265194999985,752.8096021999954,752.7934852999751,752.7941026999615,752.8096021999954,752.9596221999964,753.1425927999662,753.1425927999662,753.5449118000106,space,1,0.39981109998188913,None,753.5492811999866,754.0585612999857,755.057755399961,755.0417410999653,,,,,,,,,,,,,,,,,004,002,2025-04-28_17h54.31.464,Cued GoNogo Task,2024.2.4,60.0039842599661,2025-04-28 17h54.42.237612 +0200,
block/CondBlock2.xlsx,You are about to start a block of type 2 trials.,35,35,0,Go,Go,0.11,0.2,0.05,space,blue,vertical,space,266.400670300005,None,space,1,0.40072580002015457,None,,,,0,1,1,1,0,35,35,35,755.057755399961,,,,,,,,,,,,,,,,755.04199659999,755.057755399961,755.7570328000002,755.7570328000002,756.2565289000049,756.2407010999741,756.2412833999842,756.2565289000049,756.3733517999644,756.5563279999769,756.5563279999769,756.9743203999824,space,1,0.40072580002015457,None,756.9778909999877,757.4890839,758.4883085999754,758.4723621999728,,,,,,,,,,,,,,,,,004,002,2025-04-28_17h54.31.464,Cued GoNogo Task,2024.2.4,60.0039842599661,2025-04-28 17h54.42.237612 +0200,
block/CondBlock2.xlsx,You are about to start a block of type 2 trials.,36,36,0,Go,Go,0.15,0.05,0.2,space,green,horizontal,space,266.400670300005,None,space,1,0.3132230000337586,None,,,,0,1,1,1,0,36,36,36,758.4883085999754,,,,,,,,,,,,,,,,758.4727262000088,758.4883085999754,759.1875837999978,759.1875837999978,759.6872968999669,759.671383799985,759.6721462999703,759.6872968999669,759.8371437999886,760.0369919000077,760.0369919000077,760.3543794999714,space,1,0.3132230000337586,None,760.3580809999839,760.8696148999734,761.8688364999834,761.8527031000121,,,,,,,,,,,,,,,,,004,002,2025-04-28_17h54.31.464,Cued GoNogo Task,2024.2.4,60.0039842599661,2025-04-28 17h54.42.237612 +0200,
block/CondBlock2.xlsx,You are about to start a block of type 2 trials.,37,37,0,Go,Go,0.15,0.2,0.05,space,green,vertical,space,266.400670300005,None,None,0,,,,,,0,1,1,1,0,37,37,37,761.8688364999834,,,,,,,,,,,,,,,,761.8529560999596,761.8688364999834,762.5681709999917,762.5681709999917,763.0677605000092,763.0517477999674,763.0522951000021,763.0677605000092,763.2178218999761,763.4176256000064,763.4176256000064,763.9013830999611,None,0,,,763.9049540999695,764.4165817999747,765.4157679000054,765.399807699956,763.9169907000032,763.9169907000032,,,,,,,,,,,,,,,004,002,2025-04-28_17h54.31.464,Cued GoNogo Task,2024.2.4,60.0039842599661,2025-04-28 17h54.42.237612 +0200,
block/CondBlock2.xlsx,You are about to start a block of type 2 trials.,38,38,0,NoGo,NoGo,0.14,0.2,0.05,none,green,vertical,space,266.400670300005,None,None,1,,,,,,0,1,1,1,0,38,38,38,765.4157679000054,,,,,,,,,,,,,,,,765.4000619999715,765.4157679000054,766.1152209999855,766.1152209999855,766.6148943000007,766.5990153999883,766.5996949999826,766.6148943000007,766.7649479999673,766.9476978000021,766.9476978000021,767.4317931999685,None,1,,,767.4343117999961,767.9470508999657,768.9463305000099,768.9302832999965,767.4473606999964,767.4473606999964,,,,,,,,,,,,,,,004,002,2025-04-28_17h54.31.464,Cued GoNogo Task,2024.2.4,60.0039842599661,2025-04-28 17h54.42.237612 +0200,
block/CondBlock2.xlsx,You are about to start a block of type 2 trials.,39,39,0,Go,Go,0.46,0.2,0.05,space,green,vertical,space,266.400670300005,None,space,1,0.46585849998518825,None,,,,0,1,1,1,0,39,39,39,768.9463305000099,,,,,,,,,,,,,,,,768.9305277999956,768.9463305000099,769.6458289999864,769.6458289999864,770.1452555999858,770.1291987999575,770.1297371999826,770.1452555999858,770.611419999972,770.7947220999631,770.7947220999631,771.2629319999833,space,1,0.46585849998518825,None,771.2666766999755,771.7773652999895,772.7763722999953,772.7605790999951,,,,,,,,,,,,,,,,,004,002,2025-04-28_17h54.31.464,Cued GoNogo Task,2024.2.4,60.0039842599661,2025-04-28 17h54.42.237612 +0200,
block/CondBlock2.xlsx,You are about to start a block of type 2 trials.,40,40,0,Go,Go,0.5,0.05,0.2,space,blue,horizontal,space,266.400670300005,None,space,1,0.38593250000849366,None,,,,0,1,1,1,0,40,40,40,772.7763722999953,,,,,,,,,,,,,,,,772.7610325999558,772.7763722999953,773.4759340999881,773.4759340999881,773.9756254999666,773.9596398999565,773.9603584999568,773.9756254999666,774.475146599987,774.67475929996,774.67475929996,775.0760786999599,space,1,0.38593250000849366,None,775.0807513999753,775.5906896999804,776.5899893000023,776.5744005999877,,,,,,,,,,,,,,,,,004,002,2025-04-28_17h54.31.464,Cued GoNogo Task,2024.2.4,60.0039842599661,2025-04-28 17h54.42.237612 +0200,
block/CondBlock2.xlsx,You are about to start a block of type 2 trials.,41,41,0,Go,Go,0.16,0.05,0.2,space,green,horizontal,space,266.400670300005,None,space,1,0.41848380002193153,None,,,,0,1,1,1,0,41,41,41,776.5899893000023,,,,,,,,,,,,,,,,776.5748000000021,776.5899893000023,777.2894798999769,777.2894798999769,777.7890622999985,777.7730636000051,777.7737230999628,777.7890622999985,777.9554378999746,778.1386438999907,778.1386438999907,778.5727691999637,space,1,0.41848380002193153,None,778.5766263999976,779.0880846999935,780.0872989000054,780.0711051999824,,,,,,,,,,,,,,,,,004,002,2025-04-28_17h54.31.464,Cued GoNogo Task,2024.2.4,60.0039842599661,2025-04-28 17h54.42.237612 +0200,
