Block,blockMsg,thisN,thisTrialN,thisRepN,CueType,StimType,CueTime,Stim_Height,Stim_Width,CRESP,Color,Orientation,key_resp_2.keys,key_resp_2.rt,key_resp_2.duration,Key_Resp.keys,Key_Resp.corr,Key_Resp.rt,Key_Resp.duration,key_resp_3.keys,key_resp_3.rt,key_resp_3.duration,Blocks.thisRepN,Blocks.thisTrialN,Blocks.thisN,Blocks.thisIndex,Trials.thisRepN,Trials.thisTrialN,Trials.thisN,Trials.thisIndex,thisRow.t,notes,TaskIntro.started,fixation.started,key_resp.started,TaskIntro.stopped,key_resp.keys,key_resp.rt,key_resp.duration,BlockStart.started,BlockStart_Msg.started,key_resp_2.started,BlockStart.stopped,Blocks.key_resp_2.keys,Blocks.key_resp_2.rt,Blocks.key_resp_2.duration,Fixation.started,FixationPhase.started,Blank.started,FixationPhase.stopped,Blank.stopped,Fixation.stopped,Trial.started,Cue.started,Cue.stopped,GoNogo_Stim.started,Key_Resp.started,Trial.stopped,Trials.Key_Resp.keys,Trials.Key_Resp.corr,Trials.Key_Resp.rt,Trials.Key_Resp.duration,Feedback.started,Feedback_Present.started,Feedback_Present.stopped,Feedback.stopped,GoNogo_Stim.stopped,Key_Resp.stopped,BlockEnd.started,BlockEnd_Msg.started,key_resp_3.started,BlockEnd.stopped,Blocks.key_resp_3.keys,Blocks.key_resp_3.rt,Blocks.key_resp_3.duration,participant,session,date,expName,psychopyVersion,frameRate,expStart,
,,,,,,,,,,,,,,,,,,,,,,,,,,,,,,,,,0.0016882000491023064,0.004688400076702237,0.004688400076702237,9.7737930000294,space,9.693078899988905,None,,,,,,,,,,,,,,,,,,,,,,,,,,,,,,,,,,,,,000,001,2025-05-03_02h28.35.942,Cued GoNogo Task,2024.2.4,60.03871294935459,2025-05-03 02h28.48.383205 +0200,
block/CondBlock1.xlsx,You are about to start a block of type 1 trials.,0,0,0,Go,Go,0.13,0.05,0.2,space,blue,horizontal,space,3.144772900035605,None,space,1,0.2797063000034541,None,,,,0,0,0,0,0,0,0,0,13.015432200045325,,,,,,,,,9.782250100048259,9.7853436000878,9.7853436000878,12.94383690005634,space,3.144772900035605,None,13.012828800012358,13.015432200045325,13.659069000044838,13.725684700068086,14.158713100012392,14.142628400004469,14.1431132000871,14.158713100012392,14.29207370011136,14.474908900097944,14.474908900097944,14.7590262000449,space,1,0.2797063000034541,None,14.769633200019598,15.274478400009684,16.27360410010442,16.25751270004548,,,,,,,,,,000,001,2025-05-03_02h28.35.942,Cued GoNogo Task,2024.2.4,60.03871294935459,2025-05-03 02h28.48.383205 +0200,
block/CondBlock1.xlsx,You are about to start a block of type 1 trials.,1,1,0,NoGo,NoGo,0.43,0.05,0.2,none,blue,horizontal,space,3.144772900035605,None,None,1,,,,,,0,0,0,0,0,1,1,1,16.27360410010442,,,,,,,,,,,,,,,,16.25774930010084,16.27360410010442,16.97298090008553,16.97298090008553,17.472521700081415,17.456577600096352,17.45709500007797,17.472521700081415,17.90559249999933,18.088805800070986,18.088805800070986,18.572280600084923,None,1,,,18.574201100040227,19.07116420008242,20.070317200035788,20.054401500034146,18.588330800062977,18.588330800062977,,,,,,,,000,001,2025-05-03_02h28.35.942,Cued GoNogo Task,2024.2.4,60.03871294935459,2025-05-03 02h28.48.383205 +0200,
block/CondBlock1.xlsx,You are about to start a block of type 1 trials.,2,2,0,Go,Go,0.12,0.2,0.05,space,blue,vertical,space,3.144772900035605,None,space,1,0.3434068999486044,None,,,,0,0,0,0,0,2,2,2,20.070317200035788,,,,,,,,,,,,,,,,20.054624000098556,20.08724930009339,20.78665450005792,20.78665450005792,21.286114300019108,21.270464400062338,21.27109880000353,21.286114300019108,21.419254400068894,21.602558700018562,21.602558700018562,21.953506900114007,space,1,0.3434068999486044,None,21.958028400084004,22.468512500054203,23.467893300112337,23.451528200064786,,,,,,,,,,000,001,2025-05-03_02h28.35.942,Cued GoNogo Task,2024.2.4,60.03871294935459,2025-05-03 02h28.48.383205 +0200,
block/CondBlock1.xlsx,You are about to start a block of type 1 trials.,3,3,0,NoGo,NoGo,0.18,0.2,0.05,none,green,vertical,space,3.144772900035605,None,None,1,,,,,,0,0,0,0,0,3,3,3,23.467893300112337,,,,,,,,,,,,,,,,23.45175420003943,23.467893300112337,24.166985100018792,24.166985100018792,24.66662840009667,24.650538900052197,24.651053600013256,24.66662840009667,24.849925100104883,25.033291600062512,25.033291600062512,25.516481300001033,None,1,,,25.51850840006955,26.015463900053874,27.014870100072585,26.998790300101973,25.532717100111768,25.532717100111768,,,,,,,,000,001,2025-05-03_02h28.35.942,Cued GoNogo Task,2024.2.4,60.03871294935459,2025-05-03 02h28.48.383205 +0200,
block/CondBlock1.xlsx,You are about to start a block of type 1 trials.,4,4,0,Go,Go,0.24,0.05,0.2,space,green,horizontal,space,3.144772900035605,None,space,1,0.24990560009609908,None,,,,0,0,0,0,0,4,4,4,27.014870100072585,,,,,,,,,,,,,,,,26.999022500007413,27.031311200000346,27.730776000069454,27.730776000069454,28.230359200038947,28.214179400005378,28.214632600080222,28.230359200038947,28.48011900007259,28.663613800075836,28.663613800075836,28.915526600088924,space,1,0.24990560009609908,None,28.918773300014436,29.429679700057022,,30.42875910003204,,,,,,,,,,000,001,2025-05-03_02h28.35.942,Cued GoNogo Task,2024.2.4,60.03871294935459,2025-05-03 02h28.48.383205 +0200,
block/CondBlock1.xlsx,You are about to start a block of type 1 trials.,5,5,0,Go,Go,0.21,0.05,0.2,space,blue,horizontal,space,3.144772900035605,None,space,1,0.3113053999841213,None,,,,0,0,0,0,0,5,5,5,30.445484600029886,,,,,,,,,,,,,,,,30.42895840003621,30.445484600029886,31.128072600113228,31.144707100000232,31.627699300064705,31.61167100002058,31.612254600040615,31.627699300064705,31.844165100017563,32.027302400092594,32.027302400092594,32.344709500088356,space,1,0.3113053999841213,None,32.348772300058044,32.8599820000818,33.859102400019765,33.84310070006177,,,,,,,,,,000,001,2025-05-03_02h28.35.942,Cued GoNogo Task,2024.2.4,60.03871294935459,2025-05-03 02h28.48.383205 +0200,
block/CondBlock1.xlsx,You are about to start a block of type 1 trials.,6,6,0,Go,Go,0.11,0.2,0.05,space,blue,vertical,space,3.144772900035605,None,space,1,0.42788370000198483,None,,,,0,0,0,0,0,6,6,6,33.859102400019765,,,,,,,,,,,,,,,,33.843331600073725,33.859102400019765,34.55854710005224,34.55854710005224,35.058040700037964,35.042022600071505,35.04260470008012,35.058040700037964,35.17495480005164,35.35779260005802,35.35779260005802,35.79197130003013,space,1,0.42788370000198483,None,35.79553500004113,36.30722510011401,37.30633530009072,37.290304100024514,,,,,,,,,,000,001,2025-05-03_02h28.35.942,Cued GoNogo Task,2024.2.4,60.03871294935459,2025-05-03 02h28.48.383205 +0200,
block/CondBlock1.xlsx,You are about to start a block of type 1 trials.,7,7,0,Go,Go,0.15,0.2,0.05,space,blue,vertical,space,3.144772900035605,None,space,1,0.3223987000528723,None,,,,0,0,0,0,0,7,7,7,37.30633530009072,,,,,,,,,,,,,,,,37.290501400013454,37.30633530009072,38.00583720009308,38.00583720009308,38.505249300040305,38.4891617000103,38.48961930000223,38.505249300040305,38.6552177000558,38.854930000030436,38.854930000030436,39.1888516000472,space,1,0.3223987000528723,None,39.19144750002306,39.704394300002605,40.70344940002542,40.68744140001945,,,,,,,,,,000,001,2025-05-03_02h28.35.942,Cued GoNogo Task,2024.2.4,60.03871294935459,2025-05-03 02h28.48.383205 +0200,
block/CondBlock1.xlsx,You are about to start a block of type 1 trials.,8,8,0,NoGo,NoGo,0.3,0.05,0.2,none,blue,horizontal,space,3.144772900035605,None,None,1,,,,,,0,0,0,0,0,8,8,8,40.70344940002542,,,,,,,,,,,,,,,,40.687666100100614,40.70344940002542,41.4028364000842,41.4028364000842,41.90243090002332,41.88636020000558,41.88686400000006,41.90243090002332,42.20235200005118,42.40209610003512,42.40209610003512,42.885736100026406,None,1,,,42.887924700044096,43.40113230003044,44.400366400019266,44.38434930006042,42.90186610003002,42.90186610003002,,,,,,,,000,001,2025-05-03_02h28.35.942,Cued GoNogo Task,2024.2.4,60.03871294935459,2025-05-03 02h28.48.383205 +0200,
block/CondBlock1.xlsx,You are about to start a block of type 1 trials.,9,9,0,NoGo,NoGo,0.17,0.05,0.2,none,blue,horizontal,space,3.144772900035605,None,space,0,0.26034070004243404,None,,,,0,0,0,0,0,9,9,9,44.400366400019266,,,,,,,,,,,,,,,,44.38458310009446,44.400366400019266,45.09980210009962,45.09980210009962,45.59964730008505,45.58370100008324,45.58425640000496,45.59964730008505,45.78271060006227,45.96589710004628,45.96589710004628,46.23338500002865,space,0,0.26034070004243404,None,46.242048200103454,46.748634300078265,47.74768890009727,47.73174840002321,,,,,,,,,,000,001,2025-05-03_02h28.35.942,Cued GoNogo Task,2024.2.4,60.03871294935459,2025-05-03 02h28.48.383205 +0200,
block/CondBlock1.xlsx,You are about to start a block of type 1 trials.,10,10,0,NoGo,NoGo,0.26,0.2,0.05,none,green,vertical,space,3.144772900035605,None,space,0,0.2926519999746233,None,,,,0,0,0,0,0,10,10,10,47.74768890009727,,,,,,,,,,,,,,,,47.73200060008094,47.74768890009727,48.44707430002745,48.44707430002745,48.94676000007894,48.931146900053136,48.931914400076494,48.94676000007894,49.2130658000242,49.396635800017975,49.396635800017975,49.697007000097074,space,0,0.2926519999746233,None,49.69734910002444,50.21252640010789,51.21150650002528,51.19547480007168,,,,,,,,,,000,001,2025-05-03_02h28.35.942,Cued GoNogo Task,2024.2.4,60.03871294935459,2025-05-03 02h28.48.383205 +0200,
block/CondBlock1.xlsx,You are about to start a block of type 1 trials.,11,11,0,Go,Go,0.27,0.05,0.2,space,green,horizontal,space,3.144772900035605,None,space,1,0.2458718999987468,None,,,,0,0,0,0,0,11,11,11,51.21150650002528,,,,,,,,,,,,,,,,51.19566190009937,51.21150650002528,51.91093550005462,51.91093550005462,52.410775100113824,52.39493140007835,52.39558980008587,52.410775100113824,52.693628600100055,52.876864300109446,52.876864300109446,53.127574900048785,space,1,0.2458718999987468,None,53.13117950002197,53.64293060009368,54.64208530005999,54.62599210010376,,,,,,,,,,000,001,2025-05-03_02h28.35.942,Cued GoNogo Task,2024.2.4,60.03871294935459,2025-05-03 02h28.48.383205 +0200,
block/CondBlock1.xlsx,You are about to start a block of type 1 trials.,12,12,0,Go,Go,0.16,0.2,0.05,space,green,vertical,space,3.144772900035605,None,space,1,0.3466934999451041,None,,,,0,0,0,0,0,12,12,12,54.64208530005999,,,,,,,,,,,,,,,,54.62621790007688,54.64208530005999,55.34143730008509,55.34143730008509,55.84097870008554,55.82486630009953,55.82527140004095,55.84097870008554,56.0073344000848,56.190620800014585,56.190620800014585,56.54126670002006,space,1,0.3466934999451041,None,56.54641609999817,57.05681800004095,58.055924700107425,58.039742000051774,,,,,,,,,,000,001,2025-05-03_02h28.35.942,Cued GoNogo Task,2024.2.4,60.03871294935459,2025-05-03 02h28.48.383205 +0200,
block/CondBlock1.xlsx,You are about to start a block of type 1 trials.,13,13,0,Go,Go,0.13,0.2,0.05,space,green,vertical,space,3.144772900035605,None,space,1,0.3179309000261128,None,,,,0,0,0,0,0,13,13,13,58.055924700107425,,,,,,,,,,,,,,,,58.03996230009943,58.055924700107425,58.755252800066955,58.755252800066955,59.254957300028764,59.238777100108564,59.239344500005245,59.254957300028764,59.38809860008769,59.57117390003987,59.57117390003987,59.905180800007656,space,1,0.3179309000261128,None,59.90774130006321,60.42055420007091,61.41970290010795,61.403713000006974,,,,,,,,,,000,001,2025-05-03_02h28.35.942,Cued GoNogo Task,2024.2.4,60.03871294935459,2025-05-03 02h28.48.383205 +0200,
block/CondBlock1.xlsx,You are about to start a block of type 1 trials.,14,14,0,Go,Go,0.12,0.05,0.2,space,blue,horizontal,space,3.144772900035605,None,space,1,0.2825314999790862,None,,,,0,0,0,0,0,14,14,14,61.41970290010795,,,,,,,,,,,,,,,,61.40393600007519,61.41970290010795,62.119102200027555,62.119102200027555,62.618701400002465,62.60271820006892,62.60313980001956,62.618701400002465,62.751962800044566,62.93522240000311,62.93522240000311,63.22025160002522,space,1,0.2825314999790862,None,63.22474510001484,63.734486900037155,64.73372360004578,64.71771420002915,,,,,,,,,,000,001,2025-05-03_02h28.35.942,Cued GoNogo Task,2024.2.4,60.03871294935459,2025-05-03 02h28.48.383205 +0200,
block/CondBlock1.xlsx,You are about to start a block of type 1 trials.,15,15,0,Go,Go,0.45,0.2,0.05,space,blue,vertical,space,3.144772900035605,None,space,1,0.29228659998625517,None,,,,0,0,0,0,0,15,15,15,64.73372360004578,,,,,,,,,,,,,,,,64.71798640000634,64.73372360004578,65.43318780011032,65.43318780011032,65.93279110000003,65.91680340003222,65.91739519999828,65.93279110000003,66.38248820009176,66.58226190006826,66.58226190006826,66.88303990010172,space,1,0.29228659998625517,None,66.88664680009242,67.39817790000234,68.39752060000319,68.38153010001406,,,,,,,,,,000,001,2025-05-03_02h28.35.942,Cued GoNogo Task,2024.2.4,60.03871294935459,2025-05-03 02h28.48.383205 +0200,
block/CondBlock1.xlsx,You are about to start a block of type 1 trials.,16,16,0,NoGo,NoGo,0.14,0.2,0.05,none,green,vertical,space,3.144772900035605,None,None,1,,,,,,0,0,0,0,0,16,16,16,68.39752060000319,,,,,,,,,,,,,,,,68.38178710010834,68.39752060000319,69.09691930003464,69.09691930003464,69.59646340005565,69.58067410008516,69.58114490006119,69.59646340005565,69.74623020004947,69.92951380007435,69.92951380007435,70.41301880008541,None,1,,,70.41512890008744,70.91202570009045,71.91100330010522,71.89556090009864,70.42908630007878,70.42908630007878,,,,,,,,000,001,2025-05-03_02h28.35.942,Cued GoNogo Task,2024.2.4,60.03871294935459,2025-05-03 02h28.48.383205 +0200,
block/CondBlock1.xlsx,You are about to start a block of type 1 trials.,17,17,0,Go,Go,0.12,0.05,0.2,space,green,horizontal,space,3.144772900035605,None,space,1,0.27034089993685484,None,,,,0,0,0,0,0,17,17,17,71.91100330010522,,,,,,,,,,,,,,,,71.8960016000783,71.92780540010426,72.6272600000957,72.6272600000957,73.12676730006933,73.11099860002287,73.11157670000102,73.12676730006933,73.26015200000256,73.44319390004966,73.44319390004966,73.72734170011245,space,1,0.27034089993685484,None,73.73206500010565,74.24255180009641,75.24174930003937,75.22561620001215,,,,,,,,,,000,001,2025-05-03_02h28.35.942,Cued GoNogo Task,2024.2.4,60.03871294935459,2025-05-03 02h28.48.383205 +0200,
block/CondBlock1.xlsx,You are about to start a block of type 1 trials.,18,18,0,Go,Go,0.47,0.2,0.05,space,blue,vertical,space,3.144772900035605,None,space,1,0.3275478999130428,None,,,,0,0,0,0,0,18,18,18,75.24174930003937,,,,,,,,,,,,,,,,75.22579050005879,75.24174930003937,75.94106900005136,75.94106900005136,76.44075230008457,76.42502190009691,76.42561200005002,76.44075230008457,76.92400610004552,77.10681650007609,77.10681650007609,77.44083269999828,space,1,0.3275478999130428,None,77.44383290002588,77.9563785000937,78.95546170009766,78.93942440010142,,,,,,,,,,000,001,2025-05-03_02h28.35.942,Cued GoNogo Task,2024.2.4,60.03871294935459,2025-05-03 02h28.48.383205 +0200,
block/CondBlock1.xlsx,You are about to start a block of type 1 trials.,19,19,0,Go,Go,0.18,0.2,0.05,space,green,vertical,space,3.144772900035605,None,space,1,0.3134651000145823,None,,,,0,0,0,0,0,19,19,19,78.95546170009766,,,,,,,,,,,,,,,,78.93964550003875,78.95546170009766,79.65478310000617,79.65478310000617,80.15429020009469,80.13899750006385,80.13997680007014,80.15429020009469,80.33764830010477,80.52075260004494,80.52075260004494,80.8383447000524,space,1,0.3134651000145823,None,80.84249000006821,81.35342090006452,82.35254600003827,82.33655940007884,,,,,,,,,,000,001,2025-05-03_02h28.35.942,Cued GoNogo Task,2024.2.4,60.03871294935459,2025-05-03 02h28.48.383205 +0200,
block/CondBlock1.xlsx,You are about to start a block of type 1 trials.,20,20,0,Go,Go,0.19,0.2,0.05,space,blue,vertical,space,3.144772900035605,None,space,1,0.34834639995824546,None,,,,0,0,0,0,0,20,20,20,82.35254600003827,,,,,,,,,,,,,,,,82.33680810010992,82.35254600003827,83.05197170004249,83.05197170004249,83.55161350010894,83.53549110004678,83.5359873000998,83.55161350010894,83.75131850002799,83.93450960004702,83.93450960004702,84.28588450001553,space,1,0.34834639995824546,None,84.28993369999807,84.80063310009427,85.7998522000853,85.78359370003454,,,,,,,,,,000,001,2025-05-03_02h28.35.942,Cued GoNogo Task,2024.2.4,60.03871294935459,2025-05-03 02h28.48.383205 +0200,
block/CondBlock1.xlsx,You are about to start a block of type 1 trials.,21,21,0,Go,Go,0.14,0.2,0.05,space,blue,vertical,space,3.144772900035605,None,space,1,0.4064699999289587,None,,,,0,0,0,0,0,21,21,21,85.7998522000853,,,,,,,,,,,,,,,,85.78381200006697,85.7998522000853,86.4993599000154,86.4993599000154,86.9988350000931,86.9827003000537,86.98317900008988,86.9988350000931,87.14870670007076,87.33187770005316,87.33187770005316,87.74917350010946,space,1,0.4064699999289587,None,87.75348750001285,88.26445060002152,89.26374210009817,89.24743710004259,,,,,,,,,,000,001,2025-05-03_02h28.35.942,Cued GoNogo Task,2024.2.4,60.03871294935459,2025-05-03 02h28.48.383205 +0200,
block/CondBlock1.xlsx,You are about to start a block of type 1 trials.,22,22,0,Go,Go,0.15,0.2,0.05,space,blue,vertical,space,3.144772900035605,None,space,1,0.3095608999719843,None,,,,0,0,0,0,0,22,22,22,89.26374210009817,,,,,,,,,,,,,,,,89.24761150008999,89.26374210009817,89.96298170008231,89.96298170008231,90.46264520008117,90.44635540002491,90.44672990008257,90.46264520008117,90.61250480008312,90.81227240001317,90.81227240001317,91.12963420001324,space,1,0.3095608999719843,None,91.132488100091,91.64492260001134,92.64412500010803,92.62846810009796,,,,,,,,,,000,001,2025-05-03_02h28.35.942,Cued GoNogo Task,2024.2.4,60.03871294935459,2025-05-03 02h28.48.383205 +0200,
block/CondBlock1.xlsx,You are about to start a block of type 1 trials.,23,23,0,Go,Go,0.23,0.05,0.2,space,green,horizontal,space,3.144772900035605,None,space,1,0.3346503999782726,None,,,,0,0,0,0,0,23,23,23,92.64412500010803,,,,,,,,,,,,,,,,92.62885060010012,92.64412500010803,93.34350030007772,93.34350030007772,93.8432160000084,93.82764460006729,93.82873760000803,93.8432160000084,94.07627050008159,94.2594562000595,94.2594562000595,94.61012650001794,space,1,0.3346503999782726,None,94.61320770008024,95.12542660010513,96.12452510010917,96.1087362000253,,,,,,,,,,000,001,2025-05-03_02h28.35.942,Cued GoNogo Task,2024.2.4,60.03871294935459,2025-05-03 02h28.48.383205 +0200,
block/CondBlock1.xlsx,You are about to start a block of type 1 trials.,24,24,0,Go,Go,0.2,0.2,0.05,space,blue,vertical,space,3.144772900035605,None,space,1,0.4154740000376478,None,,,,0,0,0,0,0,24,24,24,96.12452510010917,,,,,,,,,,,,,,,,96.10910170001443,96.12452510010917,96.82403420004994,96.82403420004994,97.32363730005454,97.30739400000311,97.307849700097,97.32363730005454,97.52339040010702,97.72316170006525,97.72316170006525,98.14096790004987,space,1,0.4154740000376478,None,98.1444560000673,98.65593290003017,99.65504960005637,99.63900240010116,,,,,,,,,,000,001,2025-05-03_02h28.35.942,Cued GoNogo Task,2024.2.4,60.03871294935459,2025-05-03 02h28.48.383205 +0200,
block/CondBlock1.xlsx,You are about to start a block of type 1 trials.,25,25,0,Go,Go,0.15,0.2,0.05,space,blue,vertical,space,3.144772900035605,None,space,1,0.1977774000260979,None,,,,0,0,0,0,0,25,25,25,99.65504960005637,,,,,,,,,,,,,,,,99.63921660010237,99.65504960005637,100.35438120004255,100.35438120004255,100.8540220001014,100.83788620005362,100.83825060003437,100.8540220001014,101.00387010001577,101.20387830003165,101.20387830003165,101.40461330011021,space,1,0.1977774000260979,None,101.40723650006112,101.9198413999984,102.9188981000334,102.90287060011178,,,,,,,,,,000,001,2025-05-03_02h28.35.942,Cued GoNogo Task,2024.2.4,60.03871294935459,2025-05-03 02h28.48.383205 +0200,
block/CondBlock1.xlsx,You are about to start a block of type 1 trials.,26,26,0,NoGo,NoGo,0.2,0.2,0.05,none,blue,vertical,space,3.144772900035605,None,None,1,,,,,,0,0,0,0,0,26,26,26,102.9188981000334,,,,,,,,,,,,,,,,102.90312120004091,102.9188981000334,103.61851190007292,103.61851190007292,104.11806550004985,104.1018355000997,104.10233890009113,104.11806550004985,104.31776370003354,104.51755700004287,104.51755700004287,105.0010111000156,None,1,,,105.0031014000997,105.50022320006974,106.49939940008335,106.48352400003932,105.01713770010974,105.01713770010974,,,,,,,,000,001,2025-05-03_02h28.35.942,Cued GoNogo Task,2024.2.4,60.03871294935459,2025-05-03 02h28.48.383205 +0200,
block/CondBlock1.xlsx,You are about to start a block of type 1 trials.,27,27,0,Go,Go,0.29,0.05,0.2,space,green,horizontal,space,3.144772900035605,None,space,1,0.23499059991445392,None,,,,0,0,0,0,0,27,27,27,106.49939940008335,,,,,,,,,,,,,,,,106.48382900003344,106.51597310008947,107.21535500010941,107.21535500010941,107.7150619000895,107.69927260000259,107.700153300073,107.7150619000895,108.0149125000462,108.1981153000379,108.1981153000379,108.44908120005857,space,1,0.23499059991445392,None,108.45234340010211,108.96394130005501,109.96316040004604,109.94741510006133,,,,,,,,,,000,001,2025-05-03_02h28.35.942,Cued GoNogo Task,2024.2.4,60.03871294935459,2025-05-03 02h28.48.383205 +0200,
block/CondBlock1.xlsx,You are about to start a block of type 1 trials.,28,28,0,Go,Go,0.24,0.2,0.05,space,blue,vertical,space,3.144772900035605,None,space,1,0.19106969994027168,None,,,,0,0,0,0,0,28,28,28,109.96316040004604,,,,,,,,,,,,,,,,109.94764610007405,109.96316040004604,110.66251500009093,110.66251500009093,111.16221990005579,111.14623340009712,111.14671640004963,111.16221990005579,111.41203010000754,111.59512740001082,111.59512740001082,111.79588240000885,space,1,0.19106969994027168,None,111.79856460005976,112.31146850006189,113.31049040006474,113.29474720009603,,,,,,,,,,000,001,2025-05-03_02h28.35.942,Cued GoNogo Task,2024.2.4,60.03871294935459,2025-05-03 02h28.48.383205 +0200,
block/CondBlock1.xlsx,You are about to start a block of type 1 trials.,29,29,0,Go,Go,0.15,0.05,0.2,space,green,horizontal,space,3.144772900035605,None,space,1,0.1503499000100419,None,,,,0,0,0,0,0,29,29,29,113.31049040006474,,,,,,,,,,,,,,,,113.29505840002093,113.31049040006474,114.00999310007319,114.00999310007319,114.50936600007117,114.49337410007138,114.4939171000151,114.50936600007117,114.65941150009166,114.85915670008399,114.85915670008399,115.02693560009357,space,1,0.1503499000100419,None,115.03182250005193,115.54182120005134,116.54128000000492,116.52515320002567,,,,,,,,,,000,001,2025-05-03_02h28.35.942,Cued GoNogo Task,2024.2.4,60.03871294935459,2025-05-03 02h28.48.383205 +0200,
block/CondBlock1.xlsx,You are about to start a block of type 1 trials.,30,30,0,Go,Go,0.23,0.2,0.05,space,green,vertical,space,3.144772900035605,None,space,1,0.27803749998565763,None,,,,0,0,0,0,0,30,30,30,116.54128000000492,,,,,,,,,,,,,,,,116.52542350010481,116.54128000000492,117.24055640003644,117.24055640003644,117.74014390003867,117.72473140002694,117.72568740008865,117.74014390003867,117.9734353000531,118.15656580007635,118.15656580007635,118.44034100009594,space,1,0.27803749998565763,None,118.4432391000446,119.00991100003012,,119.95674850000069,,,,,,,,,,000,001,2025-05-03_02h28.35.942,Cued GoNogo Task,2024.2.4,60.03871294935459,2025-05-03 02h28.48.383205 +0200,
block/CondBlock1.xlsx,You are about to start a block of type 1 trials.,31,31,0,Go,Go,0.28,0.2,0.05,space,green,vertical,space,3.144772900035605,None,space,1,0.3461011000908911,None,,,,0,0,0,0,0,31,31,31,119.97410010010935,,,,,,,,,,,,,,,,119.95700390008278,119.97410010010935,120.65563320007641,120.6892084000865,,121.15418000007048,121.15468340006191,121.17056910006795,121.45374510006513,121.60815220000222,121.60815220000222,121.97167520003859,space,1,0.3461011000908911,None,121.97633289999794,122.48634650011081,123.48554000002332,123.4698403000366,,,,,,,,,,000,001,2025-05-03_02h28.35.942,Cued GoNogo Task,2024.2.4,60.03871294935459,2025-05-03 02h28.48.383205 +0200,
block/CondBlock1.xlsx,You are about to start a block of type 1 trials.,32,32,0,Go,Go,0.19,0.2,0.05,space,green,vertical,space,3.144772900035605,None,space,1,0.22289299999829382,None,,,,0,0,0,0,0,32,32,32,123.48554000002332,,,,,,,,,,,,,,,,123.47020930005237,123.48554000002332,124.1848121000221,124.1848121000221,124.68443710007705,124.66874800005462,124.66949440003373,124.68443710007705,124.88428240001667,125.0674818000989,125.0674818000989,125.3019466000842,space,1,0.22289299999829382,None,125.30606170010287,125.81691400008276,126.81606470001861,126.8003844000632,,,,,,,,,,000,001,2025-05-03_02h28.35.942,Cued GoNogo Task,2024.2.4,60.03871294935459,2025-05-03 02h28.48.383205 +0200,
block/CondBlock1.xlsx,You are about to start a block of type 1 trials.,33,33,0,Go,Go,0.12,0.2,0.05,space,green,vertical,space,3.144772900035605,None,space,1,0.24600689997896552,None,,,,0,0,0,0,0,33,33,33,126.81606470001861,,,,,,,,,,,,,,,,126.80070200003684,126.81606470001861,127.51560220005922,127.51560220005922,128.01507750002202,127.99916440004017,127.99987600010354,128.01507750002202,128.1480489000678,128.33140320004895,128.33140320004895,128.5827223000815,space,1,0.24600689997896552,None,128.5876679000212,129.09733680007048,130.096651900094,130.0808243000647,,,,,,,,,,000,001,2025-05-03_02h28.35.942,Cued GoNogo Task,2024.2.4,60.03871294935459,2025-05-03 02h28.48.383205 +0200,
block/CondBlock1.xlsx,You are about to start a block of type 1 trials.,34,34,0,Go,Go,0.18,0.2,0.05,space,blue,vertical,space,3.144772900035605,None,space,1,0.2989957999670878,None,,,,0,0,0,0,0,34,34,34,130.096651900094,,,,,,,,,,,,,,,,130.081080700038,130.096651900094,130.7962158001028,130.7962158001028,131.29574370000046,131.27955860004295,131.28009550005663,131.29574370000046,131.47859520011116,131.66209890006576,131.66209890006576,131.962816900108,space,1,0.2989957999670878,None,131.9677288000239,132.4778991000494,133.47724980011117,133.4634063000558,,,,,,,,,,000,001,2025-05-03_02h28.35.942,Cued GoNogo Task,2024.2.4,60.03871294935459,2025-05-03 02h28.48.383205 +0200,
block/CondBlock1.xlsx,You are about to start a block of type 1 trials.,35,35,0,Go,Go,0.21,0.2,0.05,space,blue,vertical,space,3.144772900035605,None,space,1,0.19819040002766997,None,,,,0,0,0,0,0,35,35,35,133.47724980011117,,,,,,,,,,,,,,,,133.463722400018,133.47724980011117,134.17664550000336,134.17664550000336,134.67620510002598,134.6602561000036,134.66093780007213,134.67620510002598,134.8928669000743,135.07601660001092,135.07601660001092,135.2769153000554,space,1,0.19819040002766997,None,135.28060690010898,135.79198910004925,136.79123640002217,136.77525700000115,,,,,,,,,,000,001,2025-05-03_02h28.35.942,Cued GoNogo Task,2024.2.4,60.03871294935459,2025-05-03 02h28.48.383205 +0200,
block/CondBlock1.xlsx,You are about to start a block of type 1 trials.,36,36,0,Go,Go,0.2,0.2,0.05,space,green,vertical,space,3.144772900035605,None,space,1,0.10080589994322509,None,,,,0,0,0,0,0,36,36,36,136.79123640002217,,,,,,,,,,,,,,,,136.77558460005093,136.79123640002217,137.49064960004762,137.49064960004762,137.9900155001087,137.97424880007748,137.9748668000102,137.9900155001087,138.1900772000663,138.38987000007182,138.38987000007182,138.50744910002686,space,1,0.10080589994322509,None,138.51223640004173,139.02273940003943,140.0218893000856,140.0061453001108,,,,,,,,,,000,001,2025-05-03_02h28.35.942,Cued GoNogo Task,2024.2.4,60.03871294935459,2025-05-03 02h28.48.383205 +0200,
block/CondBlock1.xlsx,You are about to start a block of type 1 trials.,37,37,0,Go,Go,0.45,0.05,0.2,space,blue,horizontal,space,3.144772900035605,None,space,1,0.18736109999008477,None,,,,0,0,0,0,0,37,37,37,140.0218893000856,,,,,,,,,,,,,,,,140.00641910010017,140.0218893000856,140.72122610011138,140.72122610011138,141.22081550001167,141.2052342001116,141.2058520000428,141.22081550001167,141.67045790003613,141.87036980001722,141.87036980001722,142.07156870001927,space,1,0.18736109999008477,None,142.07582660007756,142.5864035000559,143.58553540008143,143.56955820007715,,,,,,,,,,000,001,2025-05-03_02h28.35.942,Cued GoNogo Task,2024.2.4,60.03871294935459,2025-05-03 02h28.48.383205 +0200,
block/CondBlock1.xlsx,You are about to start a block of type 1 trials.,38,38,0,Go,Go,0.13,0.05,0.2,space,blue,horizontal,space,3.144772900035605,None,space,1,0.18161179998423904,None,,,,0,0,0,0,0,38,38,38,143.58553540008143,,,,,,,,,,,,,,,,143.56981490005273,143.58553540008143,144.28488080005627,144.28488080005627,144.78449250000995,144.76890260004438,144.76963870006148,144.78449250000995,144.91788010008167,145.1010381000815,145.1010381000815,145.28617289999966,space,1,0.18161179998423904,None,145.29120800003875,145.80039129999932,146.7995303000789,146.7836654999992,,,,,,,,,,000,001,2025-05-03_02h28.35.942,Cued GoNogo Task,2024.2.4,60.03871294935459,2025-05-03 02h28.48.383205 +0200,
block/CondBlock1.xlsx,You are about to start a block of type 1 trials.,39,39,0,Go,Go,0.46,0.2,0.05,space,blue,vertical,space,3.144772900035605,None,space,1,0.24308239994570613,None,,,,0,0,0,0,0,39,39,39,146.7995303000789,,,,,,,,,,,,,,,,146.7840011001099,146.7995303000789,147.49894530000165,147.49894530000165,147.9986645000754,147.98263570002746,147.98318910005037,147.9986645000754,148.46490630006883,148.6480018000584,148.6480018000584,148.89870130002964,space,1,0.24308239994570613,None,148.9024077000795,149.41422560007777,150.41312060004566,150.3974101000931,,,,,,,,,,000,001,2025-05-03_02h28.35.942,Cued GoNogo Task,2024.2.4,60.03871294935459,2025-05-03 02h28.48.383205 +0200,
block/CondBlock1.xlsx,You are about to start a block of type 1 trials.,40,40,0,Go,Go,0.29,0.2,0.05,space,blue,vertical,space,3.144772900035605,None,space,1,0.16367819998413324,None,,,,0,0,0,0,0,40,40,40,150.41312060004566,,,,,,,,,,,,,,,,150.3977030001115,150.41312060004566,151.11267450009473,151.11267450009473,151.61235830001533,151.59641130000819,151.59704300004523,151.61235830001533,151.9120090000797,152.09524490009062,152.09524490009062,152.26316410000436,space,1,0.16367819998413324,None,152.26899510005023,152.7781326000113,,153.777372200042,,,,,,,,,,000,001,2025-05-03_02h28.35.942,Cued GoNogo Task,2024.2.4,60.03871294935459,2025-05-03 02h28.48.383205 +0200,
block/CondBlock1.xlsx,You are about to start a block of type 1 trials.,41,41,0,Go,Go,0.22,0.2,0.05,space,blue,vertical,space,3.144772900035605,None,space,1,0.21677570010069758,None,,,,0,0,0,0,0,41,41,41,153.79378900001757,,,,,,,,,,,,,,,,153.77761400002055,153.79378900001757,154.47672540007625,154.4931709000375,154.97618780005723,154.96066340000834,154.96132680005394,154.97618780005723,155.20935340004507,155.3928545000963,155.3928545000963,155.62655720009934,space,1,0.21677570010069758,None,155.62972940003965,156.14209530001972,157.14128750003874,157.1252186000347,,,,,,,,,,000,001,2025-05-03_02h28.35.942,Cued GoNogo Task,2024.2.4,60.03871294935459,2025-05-03 02h28.48.383205 +0200,
block/CondBlock1.xlsx,You are about to start a block of type 1 trials.,42,42,0,Go,Go,0.49,0.2,0.05,space,blue,vertical,space,3.144772900035605,None,space,1,0.18752959999255836,None,,,,0,0,0,0,0,42,42,42,157.14128750003874,,,,,,,,,,,,,,,,157.12548760010395,157.14128750003874,157.84054690005723,157.84054690005723,158.3401548000984,158.3244568000082,158.32530480006244,158.3401548000984,158.83968640002422,159.0228939000517,159.0228939000517,159.22365800000262,space,1,0.18752959999255836,None,159.22701240004972,159.73887800006196,160.7380060000578,160.72265560005326,,,,,,,,,,000,001,2025-05-03_02h28.35.942,Cued GoNogo Task,2024.2.4,60.03871294935459,2025-05-03 02h28.48.383205 +0200,
block/CondBlock1.xlsx,You are about to start a block of type 1 trials.,43,43,0,Go,Go,0.2,0.2,0.05,space,blue,vertical,space,3.144772900035605,None,space,1,0.13741470000240952,None,,,,0,0,0,0,0,43,43,43,160.7380060000578,,,,,,,,,,,,,,,,160.7230785000138,160.7380060000578,161.4374980001012,161.4374980001012,161.93733020010404,161.92109850002453,161.92170310008805,161.93733020010404,162.1369149000384,162.3369393000612,162.3369393000612,162.48853329999838,space,1,0.13741470000240952,None,162.49196780007333,163.00293610000517,164.00198250007816,163.98634530010168,,,,,,,,,,000,001,2025-05-03_02h28.35.942,Cued GoNogo Task,2024.2.4,60.03871294935459,2025-05-03 02h28.48.383205 +0200,
block/CondBlock1.xlsx,You are about to start a block of type 1 trials.,44,44,0,Go,Go,0.3,0.05,0.2,space,blue,horizontal,space,3.144772900035605,None,space,1,0.33359339996241033,None,,,,0,0,0,0,0,44,44,44,164.00198250007816,,,,,,,,,,,,,,,,163.9866461000638,164.00198250007816,164.70144800003618,164.70144800003618,165.2011253000237,165.1850853000069,165.18558300007135,165.2011253000237,165.5007144000847,165.70073330006562,165.70073330006562,166.03671450004913,space,1,0.33359339996241033,None,166.0403323000064,166.5500615000492,167.54925830010325,167.53323170007206,,,,,,,,,,000,001,2025-05-03_02h28.35.942,Cued GoNogo Task,2024.2.4,60.03871294935459,2025-05-03 02h28.48.383205 +0200,
block/CondBlock1.xlsx,You are about to start a block of type 1 trials.,45,45,0,NoGo,NoGo,0.21,0.05,0.2,none,green,horizontal,space,3.144772900035605,None,None,1,,,,,,0,0,0,0,0,45,45,45,167.54925830010325,,,,,,,,,,,,,,,,167.53351710003335,167.54925830010325,168.24859560001642,168.24859560001642,168.7482060000766,168.73223600001074,168.73291050002445,168.7482060000766,168.96478880010545,169.14800090005156,169.14800090005156,169.63145890005399,None,1,,,169.63383510010317,170.14710630010813,171.14630860008765,171.13032890006434,169.64740490005352,169.64740490005352,,,,,,,,000,001,2025-05-03_02h28.35.942,Cued GoNogo Task,2024.2.4,60.03871294935459,2025-05-03 02h28.48.383205 +0200,
block/CondBlock1.xlsx,You are about to start a block of type 1 trials.,46,46,0,NoGo,NoGo,0.45,0.05,0.2,none,blue,horizontal,space,3.144772900035605,None,space,0,0.18342349992599338,None,,,,0,0,0,0,0,46,46,46,171.14630860008765,,,,,,,,,,,,,,,,171.13055650005117,171.14630860008765,171.84567140007857,171.84567140007857,172.3452737000771,172.32959030009806,172.33034420001786,172.3452737000771,172.79491510009393,172.99479750008322,172.99479750008322,173.18048660003114,space,0,0.18342349992599338,None,173.18491490010638,173.69406410004012,174.69346229999792,174.67781390005257,,,,,,,,,,000,001,2025-05-03_02h28.35.942,Cued GoNogo Task,2024.2.4,60.03871294935459,2025-05-03 02h28.48.383205 +0200,
block/CondBlock1.xlsx,You are about to start a block of type 1 trials.,47,47,0,Go,Go,0.24,0.05,0.2,space,green,horizontal,space,3.144772900035605,None,space,1,0.3726875999709591,None,,,,0,0,0,0,0,47,47,47,174.69346229999792,,,,,,,,,,,,,,,,174.6781243000878,174.69346229999792,175.3925906000659,175.3925906000659,175.89235120010562,175.87622000009287,175.87671920005232,175.89235120010562,176.14218810002785,176.32532310008537,176.32532310008537,176.70966190006584,space,1,0.3726875999709591,None,176.71395590004977,177.22454980004113,178.22384240000974,178.2080129000824,,,,,,,,,,000,001,2025-05-03_02h28.35.942,Cued GoNogo Task,2024.2.4,60.03871294935459,2025-05-03 02h28.48.383205 +0200,
block/CondBlock1.xlsx,You are about to start a block of type 1 trials.,48,48,0,NoGo,NoGo,0.15,0.2,0.05,none,blue,vertical,space,3.144772900035605,None,None,1,,,,,,0,0,0,0,0,48,48,48,178.22384240000974,,,,,,,,,,,,,,,,178.20830380008556,178.22384240000974,178.92312640009914,178.92312640009914,179.4227604001062,179.40712200000416,179.4077954000095,179.4227604001062,179.57251310010906,179.7724854000844,179.7724854000844,180.25623780000024,None,1,,,180.25928940006997,180.77182140003424,181.77088370011188,181.75507140008267,180.2720515000401,180.2720515000401,,,,,,,,000,001,2025-05-03_02h28.35.942,Cued GoNogo Task,2024.2.4,60.03871294935459,2025-05-03 02h28.48.383205 +0200,
block/CondBlock1.xlsx,You are about to start a block of type 1 trials.,49,49,0,Go,Go,0.12,0.05,0.2,space,blue,horizontal,space,3.144772900035605,None,space,1,0.18767739995382726,None,,,,0,0,0,0,0,49,49,49,181.77088370011188,,,,,,,,,,,,,,,,181.7553893000586,181.77088370011188,182.47019360004924,182.47019360004924,182.9697474000277,182.95387140009552,182.954458000022,182.9697474000277,183.10319470008835,183.28627250005957,183.28627250005957,183.48777430003975,space,1,0.18767739995382726,None,183.4919873001054,184.002291800105,185.00150740006939,184.98559830000158,,,,,,,,,,000,001,2025-05-03_02h28.35.942,Cued GoNogo Task,2024.2.4,60.03871294935459,2025-05-03 02h28.48.383205 +0200,
block/CondBlock1.xlsx,You are about to start a block of type 1 trials.,50,50,0,Go,Go,0.22,0.2,0.05,space,green,vertical,space,3.144772900035605,None,space,1,0.17658339999616146,None,,,,0,0,0,0,0,50,50,50,185.00150740006939,,,,,,,,,,,,,,,,184.98588970000856,185.00150740006939,185.70089950005058,185.70089950005058,186.20058530010283,186.18501230003312,186.18556210002862,186.20058530010283,186.4336427000817,186.61681230005343,186.61681230005343,186.80122540006414,space,1,0.17658339999616146,None,186.80511040007696,187.316239100066,188.3156963000074,188.29975520004518,,,,,,,,,,000,001,2025-05-03_02h28.35.942,Cued GoNogo Task,2024.2.4,60.03871294935459,2025-05-03 02h28.48.383205 +0200,
block/CondBlock1.xlsx,You are about to start a block of type 1 trials.,51,51,0,Go,Go,0.28,0.05,0.2,space,green,horizontal,space,3.144772900035605,None,space,1,0.22978599998168647,None,,,,0,0,0,0,0,51,51,51,188.3156963000074,,,,,,,,,,,,,,,,188.30004460003693,188.3156963000074,189.01488800009247,189.01488800009247,189.51443140010815,189.49854610010516,189.4991343000438,189.51443140010815,189.79764350003097,189.9807917000726,189.9807917000726,190.21504540008027,space,1,0.22978599998168647,None,190.21826220001094,190.73015680001117,,191.72943210008088,,,,,,,,,,000,001,2025-05-03_02h28.35.942,Cued GoNogo Task,2024.2.4,60.03871294935459,2025-05-03 02h28.48.383205 +0200,
block/CondBlock1.xlsx,You are about to start a block of type 1 trials.,52,52,0,Go,Go,0.23,0.2,0.05,space,green,vertical,space,3.144772900035605,None,space,1,0.23331560008227825,None,,,,0,0,0,0,0,52,52,52,191.74598210002296,,,,,,,,,,,,,,,,191.7296727000503,191.74598210002296,192.4288601001026,192.44541530008428,192.92841570009477,192.9127179000061,192.9134874000447,192.92841570009477,193.16144390008412,193.344727500109,193.344727500109,193.57989940000698,space,1,0.23331560008227825,None,193.5836139000021,194.09409940009937,195.0932349000359,195.07756630005315,,,,,,,,,,000,001,2025-05-03_02h28.35.942,Cued GoNogo Task,2024.2.4,60.03871294935459,2025-05-03 02h28.48.383205 +0200,
block/CondBlock1.xlsx,You are about to start a block of type 1 trials.,53,53,0,Go,Go,0.22,0.05,0.2,space,green,horizontal,space,3.144772900035605,None,space,1,0.22901000001002103,None,,,,0,0,0,0,0,53,53,53,195.0932349000359,,,,,,,,,,,,,,,,195.07792740000878,195.0932349000359,195.7927161999978,195.7927161999978,196.29234140005428,196.2762349001132,196.2768887000857,196.29234140005428,196.5255179000087,196.70868230005726,196.70868230005726,196.94325920008123,space,1,0.22901000001002103,None,196.94818480010144,197.45802420005202,198.45703740010504,198.44142370007467,,,,,,,,,,000,001,2025-05-03_02h28.35.942,Cued GoNogo Task,2024.2.4,60.03871294935459,2025-05-03 02h28.48.383205 +0200,
block/CondBlock1.xlsx,You are about to start a block of type 1 trials.,54,54,0,NoGo,NoGo,0.14,0.05,0.2,none,green,horizontal,space,3.144772900035605,None,space,0,0.17999580001924187,None,,,,0,0,0,0,0,54,54,54,198.45703740010504,,,,,,,,,,,,,,,,198.4417786000995,198.45703740010504,199.1565512000816,199.1565512000816,199.65633510006592,199.64003190002404,199.64062960003503,199.65633510006592,199.80600660003256,199.98945190000813,199.98945190000813,200.17388540005777,space,0,0.17999580001924187,None,200.17912020010408,200.68852180009708,201.68787340004928,201.67188760009594,,,,,,,,,,000,001,2025-05-03_02h28.35.942,Cued GoNogo Task,2024.2.4,60.03871294935459,2025-05-03 02h28.48.383205 +0200,
block/CondBlock1.xlsx,You are about to start a block of type 1 trials.,55,55,0,Go,Go,0.15,0.2,0.05,space,blue,vertical,space,3.144772900035605,None,space,1,0.262386699905619,None,,,,0,0,0,0,0,55,55,55,201.68787340004928,,,,,,,,,,,,,,,,201.67215590004344,201.68787340004928,202.38728910009377,202.38728910009377,202.8867796000559,202.87054770009127,202.8709911000915,202.8867796000559,203.03674570005387,203.23641600005794,203.23641600005794,203.50402980006766,space,1,0.262386699905619,None,203.50839290011209,204.01925690006465,205.01824560004752,205.0027361001121,,,,,,,,,,000,001,2025-05-03_02h28.35.942,Cued GoNogo Task,2024.2.4,60.03871294935459,2025-05-03 02h28.48.383205 +0200,
block/CondBlock1.xlsx,You are about to start a block of type 1 trials.,56,56,0,Go,Go,0.47,0.2,0.05,space,blue,vertical,space,3.144772900035605,None,space,1,0.3264871999854222,None,,,,0,0,0,0,0,56,56,56,205.01824560004752,,,,,,,,,,,,,,,,205.0030144000193,205.01824560004752,205.71774240001105,205.71774240001105,206.21749400009867,206.20137780008372,206.20190090010874,206.21749400009867,206.70039660006296,206.883483700105,206.883483700105,207.21819130005315,space,1,0.3264871999854222,None,207.2228482000064,207.73306750005577,208.73186160007026,208.7162836000789,,,,,,,,,,000,001,2025-05-03_02h28.35.942,Cued GoNogo Task,2024.2.4,60.03871294935459,2025-05-03 02h28.48.383205 +0200,
block/CondBlock1.xlsx,You are about to start a block of type 1 trials.,57,57,0,NoGo,NoGo,0.42,0.2,0.05,none,green,vertical,space,3.144772900035605,None,space,0,0.2071779000107199,None,,,,0,0,0,0,0,57,57,57,208.73186160007026,,,,,,,,,,,,,,,,208.71658350003418,208.73186160007026,209.4315170000773,209.4315170000773,209.93103750003502,209.9151919001015,209.91581060003955,209.93103750003502,210.36396580003202,210.54713610000908,210.54713610000908,210.76480400003493,space,0,0.2071779000107199,None,210.7698001000099,211.27986060001422,212.27911380003206,212.26319460000377,,,,,,,,,,000,001,2025-05-03_02h28.35.942,Cued GoNogo Task,2024.2.4,60.03871294935459,2025-05-03 02h28.48.383205 +0200,
block/CondBlock1.xlsx,You are about to start a block of type 1 trials.,58,58,0,Go,Go,0.22,0.05,0.2,space,green,horizontal,space,3.144772900035605,None,space,1,0.21112500003073364,None,,,,0,0,0,0,0,58,58,58,212.27911380003206,,,,,,,,,,,,,,,,212.26347150001675,212.27911380003206,212.978756000055,212.978756000055,213.47807470010594,213.46200620010495,213.46253610006534,213.47807470010594,213.7112948000431,213.8943385001039,213.8943385001039,214.1120174000971,space,1,0.21112500003073364,None,214.11568090005312,214.62721150007565,215.62631260009948,215.61042510007974,,,,,,,,,,000,001,2025-05-03_02h28.35.942,Cued GoNogo Task,2024.2.4,60.03871294935459,2025-05-03 02h28.48.383205 +0200,
block/CondBlock1.xlsx,You are about to start a block of type 1 trials.,59,59,0,Go,Go,0.3,0.2,0.05,space,blue,vertical,space,3.144772900035605,None,space,1,0.1820756000233814,None,,,,0,0,0,0,0,59,59,59,215.62631260009948,,,,,,,,,,,,,,,,215.61068660009187,215.62631260009948,216.32580490002874,216.32580490002874,216.8254389000358,216.80922950000968,216.8098683001008,216.8254389000358,217.12510450009722,217.32493120001163,217.32493120001163,217.51045910001267,space,1,0.1820756000233814,None,217.51465190004092,218.0243014000589,219.02372400008608,219.0081271000672,,,,,,,,,,000,001,2025-05-03_02h28.35.942,Cued GoNogo Task,2024.2.4,60.03871294935459,2025-05-03 02h28.48.383205 +0200,
block/CondBlock1.xlsx,You are about to start a block of type 1 trials.,60,60,0,NoGo,NoGo,0.24,0.2,0.05,none,blue,vertical,space,3.144772900035605,None,space,0,0.19505179999396205,None,,,,0,0,0,0,0,60,60,60,219.02372400008608,,,,,,,,,,,,,,,,219.008491900051,219.02372400008608,219.7230092000682,219.7230092000682,220.22253950010054,220.20657110004686,220.20737140008714,220.22253950010054,220.47242710005958,220.65541160001885,220.65541160001885,220.85642210009973,space,0,0.19505179999396205,None,220.8611253000563,221.371803700109,222.37079250009265,222.3549715001136,,,,,,,,,,000,001,2025-05-03_02h28.35.942,Cued GoNogo Task,2024.2.4,60.03871294935459,2025-05-03 02h28.48.383205 +0200,
block/CondBlock1.xlsx,You are about to start a block of type 1 trials.,61,61,0,NoGo,NoGo,0.1,0.2,0.05,none,green,vertical,space,3.144772900035605,None,space,0,0.1971631000051275,None,,,,0,0,0,0,0,61,61,61,222.37079250009265,,,,,,,,,,,,,,,,222.35530150006525,222.37079250009265,223.07016670005396,223.07016670005396,223.5697053000331,223.55396210006438,223.55464840005152,223.5697053000331,223.66973540000618,223.8695647000568,223.8695647000568,224.07057620002888,space,0,0.1971631000051275,None,224.07106990006287,224.58562650007661,225.58476850006264,225.56877560005523,,,,,,,,,,000,001,2025-05-03_02h28.35.942,Cued GoNogo Task,2024.2.4,60.03871294935459,2025-05-03 02h28.48.383205 +0200,
block/CondBlock1.xlsx,You are about to start a block of type 1 trials.,62,62,0,Go,Go,0.45,0.05,0.2,space,blue,horizontal,space,3.144772900035605,None,space,1,0.2082071000477299,None,,,,0,0,0,0,0,62,62,62,225.58476850006264,,,,,,,,,,,,,,,,225.5690334000392,225.58476850006264,226.28434790007304,226.28434790007304,226.78384370007552,226.76822050008923,226.76907040004153,226.78384370007552,227.23340190004092,227.43328810005914,227.43328810005914,227.65099340002052,space,1,0.2082071000477299,None,227.6547776000807,228.16611000010744,229.16521040000953,229.14948420005385,,,,,,,,,,000,001,2025-05-03_02h28.35.942,Cued GoNogo Task,2024.2.4,60.03871294935459,2025-05-03 02h28.48.383205 +0200,
block/CondBlock1.xlsx,You are about to start a block of type 1 trials.,63,63,0,Go,Go,0.1,0.05,0.2,space,green,horizontal,space,3.144772900035605,None,space,1,0.2501208999892697,None,,,,0,0,0,0,0,63,63,63,229.16521040000953,,,,,,,,,,,,,,,,229.14998690003995,229.16521040000953,229.8645912000211,229.8645912000211,230.36436620005406,230.34860930009745,230.3492348000873,230.36436620005406,230.46411610010546,230.66388680005912,230.66388680005912,230.91644160007127,space,1,0.2501208999892697,None,230.92074630002026,231.43003350007348,232.4291747000534,232.41329340008087,,,,,,,,,,000,001,2025-05-03_02h28.35.942,Cued GoNogo Task,2024.2.4,60.03871294935459,2025-05-03 02h28.48.383205 +0200,
block/CondBlock1.xlsx,You are about to start a block of type 1 trials.,64,64,0,Go,Go,0.19,0.05,0.2,space,blue,horizontal,space,3.144772900035605,None,space,1,0.26247920002788305,None,,,,0,0,0,0,0,64,64,64,232.4291747000534,,,,,,,,,,,,,,,,232.41357330000028,232.4291747000534,233.1286142000463,233.1286142000463,233.62808290007524,233.61236910009757,233.6130476000253,233.62808290007524,233.82814480003435,234.01127880008426,234.01127880008426,234.27882460004184,space,1,0.26247920002788305,None,234.2827266000677,234.79393560008612,235.79299610003363,235.77713709999807,,,,,,,,,,000,001,2025-05-03_02h28.35.942,Cued GoNogo Task,2024.2.4,60.03871294935459,2025-05-03 02h28.48.383205 +0200,
block/CondBlock1.xlsx,You are about to start a block of type 1 trials.,65,65,0,Go,Go,0.21,0.2,0.05,space,blue,vertical,space,3.144772900035605,None,space,1,0.18623700004536659,None,,,,0,0,0,0,0,65,65,65,235.79299610003363,,,,,,,,,,,,,,,,235.7774074000772,235.79299610003363,236.4926001999993,236.4926001999993,236.99202750006225,236.97619070007931,236.97683140006848,236.99202750006225,237.2087831000099,237.39181200007442,237.39181200007442,237.59279290004633,space,1,0.18623700004536659,None,237.59682170010637,238.10792880004738,239.10694150009658,239.09109750005882,,,,,,,,,,000,001,2025-05-03_02h28.35.942,Cued GoNogo Task,2024.2.4,60.03871294935459,2025-05-03 02h28.48.383205 +0200,
block/CondBlock1.xlsx,You are about to start a block of type 1 trials.,66,66,0,Go,Go,0.18,0.05,0.2,space,blue,horizontal,space,3.144772900035605,None,space,1,0.2572573000798002,None,,,,0,0,0,0,0,66,66,66,239.10694150009658,,,,,,,,,,,,,,,,239.09140070003923,239.10694150009658,239.80645210004877,239.80645210004877,240.3060965000186,240.29033380001783,240.2911533000879,240.3060965000186,240.4893604000099,240.67235220002476,240.67235220002476,240.9401124001015,space,1,0.2572573000798002,None,240.9444644000614,241.4551330000395,242.4543410000624,242.43858380010352,,,,,,,,,,000,001,2025-05-03_02h28.35.942,Cued GoNogo Task,2024.2.4,60.03871294935459,2025-05-03 02h28.48.383205 +0200,
block/CondBlock1.xlsx,You are about to start a block of type 1 trials.,67,67,0,Go,Go,0.29,0.2,0.05,space,green,vertical,space,3.144772900035605,None,space,1,0.2743124000262469,None,,,,0,0,0,0,0,67,67,67,242.4543410000624,,,,,,,,,,,,,,,,242.4389173000818,242.4543410000624,243.15353610005695,243.15353610005695,243.65316880005412,243.6373265000293,243.63799000007566,243.65316880005412,243.95307060005143,244.13626640010625,244.13626640010625,244.42047600005753,space,1,0.2743124000262469,None,244.4240530000534,244.93562590004876,245.93465050007217,245.91884310008027,,,,,,,,,,000,001,2025-05-03_02h28.35.942,Cued GoNogo Task,2024.2.4,60.03871294935459,2025-05-03 02h28.48.383205 +0200,
block/CondBlock1.xlsx,You are about to start a block of type 1 trials.,68,68,0,NoGo,NoGo,0.24,0.2,0.05,none,blue,vertical,space,3.144772900035605,None,space,0,0.24323849997017533,None,,,,0,0,0,0,0,68,68,68,245.93465050007217,,,,,,,,,,,,,,,,245.919163600076,245.93465050007217,246.6342063000193,246.6342063000193,247.13354590011295,247.11736150004435,247.11781810002867,247.13354590011295,247.3834591000341,247.56680830009282,247.56680830009282,247.8173628000077,space,0,0.24323849997017533,None,247.82124690001365,248.3326789001003,249.3320044000866,249.31604800000787,,,,,,,,,,000,001,2025-05-03_02h28.35.942,Cued GoNogo Task,2024.2.4,60.03871294935459,2025-05-03 02h28.48.383205 +0200,
block/CondBlock1.xlsx,You are about to start a block of type 1 trials.,69,69,0,Go,Go,0.27,0.05,0.2,space,green,horizontal,space,3.144772900035605,None,space,1,0.2766534999245778,None,,,,0,0,0,0,0,69,69,69,249.3320044000866,,,,,,,,,,,,,,,,249.31622040004004,249.3320044000866,250.03150969999842,250.03150969999842,250.5310751000652,250.51504740002565,250.51574410009198,250.5310751000652,250.81396140006837,250.99728300003335,250.99728300003335,251.28172520000953,space,1,0.2766534999245778,None,251.28621849999763,251.79656899999827,252.7957369000651,252.77998840005603,,,,,,,,,,000,001,2025-05-03_02h28.35.942,Cued GoNogo Task,2024.2.4,60.03871294935459,2025-05-03 02h28.48.383205 +0200,
block/CondBlock1.xlsx,You are about to start a block of type 1 trials.,70,70,0,Go,Go,0.25,0.2,0.05,space,green,vertical,space,3.144772900035605,None,space,1,0.20598889992106706,None,,,,0,0,0,0,0,70,70,70,252.7957369000651,,,,,,,,,,,,,,,,252.78029230004176,252.7957369000651,253.49541210010648,253.49541210010648,253.99483470001724,253.97911110008135,253.97981020004954,253.99483470001724,254.2445065000793,254.44443720008712,254.44443720008712,254.6618949000258,space,1,0.20598889992106706,None,254.66589050006587,255.1771357000107,256.17638240009546,256.16058610007167,,,,,,,,,,000,001,2025-05-03_02h28.35.942,Cued GoNogo Task,2024.2.4,60.03871294935459,2025-05-03 02h28.48.383205 +0200,
block/CondBlock1.xlsx,You are about to start a block of type 1 trials.,71,71,0,Go,Go,0.28,0.05,0.2,space,green,horizontal,space,3.144772900035605,None,space,1,0.20825679996050894,None,,,,0,0,0,0,0,71,71,71,256.17638240009546,,,,,,,,,,,,,,,,256.1609288000036,256.17638240009546,256.87569280003663,256.87569280003663,257.3752976000542,257.3597701000981,257.3605142000597,257.3752976000542,257.6584856000263,257.84152480005287,257.84152480005287,258.059047000017,space,1,0.20825679996050894,None,258.0623184000142,258.5744074000977,259.57354570005555,259.5576554000145,,,,,,,,,,000,001,2025-05-03_02h28.35.942,Cued GoNogo Task,2024.2.4,60.03871294935459,2025-05-03 02h28.48.383205 +0200,
block/CondBlock1.xlsx,You are about to start a block of type 1 trials.,72,72,0,Go,Go,0.14,0.05,0.2,space,blue,horizontal,space,3.144772900035605,None,space,1,0.2321351000573486,None,,,,0,0,0,0,0,72,72,72,259.57354570005555,,,,,,,,,,,,,,,,259.55797530000564,259.57354570005555,260.27303480007686,260.27303480007686,260.7723935000831,260.7564622000791,260.7570035000099,260.7723935000831,260.9225061000325,261.10565600008704,261.10565600008704,261.3415126000764,space,1,0.2321351000573486,None,261.34555120009463,261.8549317000434,262.8541671000421,262.83812780003063,,,,,,,,,,000,001,2025-05-03_02h28.35.942,Cued GoNogo Task,2024.2.4,60.03871294935459,2025-05-03 02h28.48.383205 +0200,
block/CondBlock1.xlsx,You are about to start a block of type 1 trials.,73,73,0,Go,Go,0.11,0.05,0.2,space,blue,horizontal,space,3.144772900035605,None,space,1,0.2252963000210002,None,,,,0,0,0,0,0,73,73,73,262.8541671000421,,,,,,,,,,,,,,,,262.83841810002923,262.8541671000421,263.5535804000683,263.5535804000683,264.0531773000257,264.03734310006257,264.03801430005115,264.0531773000257,264.1698019000469,264.35301460011397,264.35301460011397,264.58754790003877,space,1,0.2252963000210002,None,264.5918561000144,265.1022280000616,266.10139600001276,266.08575830003247,,,,,,,,,,000,001,2025-05-03_02h28.35.942,Cued GoNogo Task,2024.2.4,60.03871294935459,2025-05-03 02h28.48.383205 +0200,
block/CondBlock1.xlsx,You are about to start a block of type 1 trials.,74,74,0,Go,Go,0.22,0.2,0.05,space,blue,vertical,space,3.144772900035605,None,space,1,0.25305109994951636,None,,,,0,0,0,0,0,74,74,74,266.10139600001276,,,,,,,,,,,,,,,,266.08595290000085,266.10139600001276,266.80088490003254,266.80088490003254,267.30046960001346,267.28495300002396,267.285647300072,267.30046960001346,267.5337537000887,267.7167350000236,267.7167350000236,267.98485070001334,space,1,0.25305109994951636,None,267.99024930002633,268.49954240000807,269.4988014000701,269.4828892000951,,,,,,,,,,000,001,2025-05-03_02h28.35.942,Cued GoNogo Task,2024.2.4,60.03871294935459,2025-05-03 02h28.48.383205 +0200,
block/CondBlock1.xlsx,You are about to start a block of type 1 trials.,75,75,0,Go,Go,0.26,0.05,0.2,space,blue,horizontal,space,3.144772900035605,None,space,1,0.3428972000256181,None,,,,0,0,0,0,0,75,75,75,269.4988014000701,,,,,,,,,,,,,,,,269.48316640011035,269.4988014000701,270.1982486000052,270.1982486000052,270.69782460003626,270.68155670003034,270.6822256000014,270.69782460003626,270.9642288000323,271.14734920009505,271.14734920009505,271.4984089001082,space,1,0.3428972000256181,None,271.5025037000887,272.0133518000366,273.0123395000119,272.99669550010003,,,,,,,,,,000,001,2025-05-03_02h28.35.942,Cued GoNogo Task,2024.2.4,60.03871294935459,2025-05-03 02h28.48.383205 +0200,
block/CondBlock1.xlsx,You are about to start a block of type 1 trials.,76,76,0,Go,Go,0.14,0.2,0.05,space,green,vertical,space,3.144772900035605,None,space,1,0.3612724000122398,None,,,,0,0,0,0,0,76,76,76,273.0123395000119,,,,,,,,,,,,,,,,272.9969822000712,273.0123395000119,273.7118562000105,273.7118562000105,274.21153840003535,274.1959849999985,274.1969660000177,274.21153840003535,274.3613279000856,274.5444516000571,274.5444516000571,274.9116996000521,space,1,0.3612724000122398,None,274.91687400010414,275.4270716001047,276.42626880004536,276.4104170000646,,,,,,,,,,000,001,2025-05-03_02h28.35.942,Cued GoNogo Task,2024.2.4,60.03871294935459,2025-05-03 02h28.48.383205 +0200,
block/CondBlock1.xlsx,You are about to start a block of type 1 trials.,77,77,0,Go,Go,0.18,0.05,0.2,space,green,horizontal,space,3.144772900035605,None,space,1,0.22620649996679276,None,,,,0,0,0,0,0,77,77,77,276.42626880004536,,,,,,,,,,,,,,,,276.4105922000017,276.42626880004536,277.12574710010085,277.12574710010085,277.62533440010156,277.6094938000897,277.61032570002135,277.62533440010156,277.80846550001297,277.99158530007116,277.99158530007116,278.22569800005294,space,1,0.22620649996679276,None,278.22943860001396,278.7412665000884,279.7402191000292,279.7246060000034,,,,,,,,,,000,001,2025-05-03_02h28.35.942,Cued GoNogo Task,2024.2.4,60.03871294935459,2025-05-03 02h28.48.383205 +0200,
block/CondBlock1.xlsx,You are about to start a block of type 1 trials.,78,78,0,NoGo,NoGo,0.27,0.05,0.2,none,blue,horizontal,space,3.144772900035605,None,None,1,,,,,,0,0,0,0,0,78,78,78,279.7402191000292,,,,,,,,,,,,,,,,279.7248808000004,279.7402191000292,280.43969420006033,280.43969420006033,280.9392063000705,280.9233087000903,280.92403810005635,280.9392063000705,281.2223388000857,281.4055535000516,281.4055535000516,281.8893114000093,None,1,,,281.89173690008465,282.40481110010296,283.403855200042,283.3880628000479,281.90504189999774,281.90504189999774,,,,,,,,000,001,2025-05-03_02h28.35.942,Cued GoNogo Task,2024.2.4,60.03871294935459,2025-05-03 02h28.48.383205 +0200,
block/CondBlock1.xlsx,You are about to start a block of type 1 trials.,79,79,0,NoGo,NoGo,0.26,0.2,0.05,none,blue,vertical,space,3.144772900035605,None,space,0,0.221566200023517,None,,,,0,0,0,0,0,79,79,79,283.403855200042,,,,,,,,,,,,,,,,283.3883612001082,283.403855200042,284.1033356001135,284.1033356001135,284.6027622000547,284.58720639999956,284.5880254000658,284.6027622000547,284.86942640005145,285.05255190003663,285.05255190003663,285.2871291000629,space,0,0.221566200023517,None,285.29383770003915,285.80200440005865,286.8011290000286,286.7851382000372,,,,,,,,,,000,001,2025-05-03_02h28.35.942,Cued GoNogo Task,2024.2.4,60.03871294935459,2025-05-03 02h28.48.383205 +0200,
block/CondBlock1.xlsx,You are about to start a block of type 1 trials.,80,80,0,Go,Go,0.22,0.2,0.05,space,green,vertical,space,3.144772900035605,None,space,1,0.22652949998155236,None,,,,0,0,0,0,0,80,80,80,286.8011290000286,,,,,,,,,,,,,,,,286.78540060005616,286.8011290000286,287.5006466000341,287.5006466000341,288.0001525999978,287.98407480004244,287.9846682000207,288.0001525999978,288.2332625000272,288.4164118000772,288.4164118000772,288.6509275001008,space,1,0.22652949998155236,None,288.65556680003647,289.1658381000161,290.16504580003675,290.14920240000356,,,,,,,,,,000,001,2025-05-03_02h28.35.942,Cued GoNogo Task,2024.2.4,60.03871294935459,2025-05-03 02h28.48.383205 +0200,
block/CondBlock1.xlsx,You are about to start a block of type 1 trials.,81,81,0,Go,Go,0.5,0.2,0.05,space,green,vertical,space,3.144772900035605,None,space,1,0.2506047999486327,None,,,,0,0,0,0,0,81,81,81,290.16504580003675,,,,,,,,,,,,,,,,290.1494841000531,290.16504580003675,290.8644251000369,290.8644251000369,291.3639692000579,291.3483849000186,291.3492244000081,291.3639692000579,291.86359830002766,292.06352370011155,292.06352370011155,292.3310005000094,space,1,0.2506047999486327,None,292.33489960001316,292.84621610003524,293.8453834000975,293.82950160000473,,,,,,,,,,000,001,2025-05-03_02h28.35.942,Cued GoNogo Task,2024.2.4,60.03871294935459,2025-05-03 02h28.48.383205 +0200,
block/CondBlock1.xlsx,You are about to start a block of type 1 trials.,82,82,0,Go,Go,0.43,0.05,0.2,space,green,horizontal,space,3.144772900035605,None,space,1,0.26203910005278885,None,,,,0,0,0,0,0,82,82,82,293.8453834000975,,,,,,,,,,,,,,,,293.8297907001106,293.8453834000975,294.5447155000875,294.5447155000875,295.04438830004074,295.0288433000678,295.0295386000071,295.04438830004074,295.477175100008,295.6606134000467,295.6606134000467,295.92828850005753,space,1,0.26203910005278885,None,295.93269850010984,296.4431059000781,297.44232020003255,297.42683210002724,,,,,,,,,,000,001,2025-05-03_02h28.35.942,Cued GoNogo Task,2024.2.4,60.03871294935459,2025-05-03 02h28.48.383205 +0200,
block/CondBlock1.xlsx,You are about to start a block of type 1 trials.,83,83,0,Go,Go,0.25,0.2,0.05,space,green,vertical,space,3.144772900035605,None,space,1,0.2627454000758007,None,,,,0,0,0,0,0,83,83,83,297.44232020003255,,,,,,,,,,,,,,,,297.4271075000288,297.44232020003255,298.14197540003806,298.14197540003806,298.64135760010686,298.6254341000458,298.6259544000495,298.64135760010686,298.89125590003096,299.0908962000394,299.0908962000394,299.35896580002736,space,1,0.2627454000758007,None,299.35929030005354,299.87380200007465,300.872940500034,300.8571957000531,,,,,,,,,,000,001,2025-05-03_02h28.35.942,Cued GoNogo Task,2024.2.4,60.03871294935459,2025-05-03 02h28.48.383205 +0200,
block/CondBlock1.xlsx,You are about to start a block of type 1 trials.,84,84,0,NoGo,NoGo,0.14,0.2,0.05,none,green,vertical,space,3.144772900035605,None,space,0,0.21318479999899864,None,,,,0,0,0,0,0,84,84,84,300.872940500034,,,,,,,,,,,,,,,,300.8574917000951,300.872940500034,301.5722470000619,301.5722470000619,302.072039800114,302.0559468000429,302.05667000007816,302.072039800114,302.2217839000514,302.4049742000643,302.4049742000643,302.6234877000097,space,0,0.21318479999899864,None,302.62850590003654,303.1378088000929,304.1371332000708,304.121300800005,,,,,,,,,,000,001,2025-05-03_02h28.35.942,Cued GoNogo Task,2024.2.4,60.03871294935459,2025-05-03 02h28.48.383205 +0200,
block/CondBlock1.xlsx,You are about to start a block of type 1 trials.,85,85,0,Go,Go,0.2,0.05,0.2,space,blue,horizontal,space,3.144772900035605,None,space,1,0.17068640002980828,None,,,,0,0,0,0,0,85,85,85,304.1371332000708,,,,,,,,,,,,,,,,304.1216689000139,304.1371332000708,304.836325100041,304.836325100041,305.3359240000136,305.3197482000105,305.32035510009155,305.3359240000136,305.5354771000566,305.7354734000983,305.7354734000983,305.92004410002846,space,1,0.17068640002980828,None,305.92399210005533,306.4351150000002,307.43415970006026,307.41833990009036,,,,,,,,,,000,001,2025-05-03_02h28.35.942,Cued GoNogo Task,2024.2.4,60.03871294935459,2025-05-03 02h28.48.383205 +0200,
block/CondBlock1.xlsx,You are about to start a block of type 1 trials.,86,86,0,Go,Go,0.16,0.2,0.05,space,blue,vertical,space,3.144772900035605,None,space,1,0.259523699991405,None,,,,0,0,0,0,0,86,86,86,307.43415970006026,,,,,,,,,,,,,,,,307.4186383000342,307.43415970006026,308.1334720000159,308.1334720000159,308.63338780007325,308.6174242000561,308.61816540011205,308.63338780007325,308.7998273000121,308.982985700015,308.982985700015,309.25049790006597,space,1,0.259523699991405,None,309.25426030007657,309.7657614001073,310.7646268000826,310.7490101000294,,,,,,,,,,000,001,2025-05-03_02h28.35.942,Cued GoNogo Task,2024.2.4,60.03871294935459,2025-05-03 02h28.48.383205 +0200,
block/CondBlock1.xlsx,You are about to start a block of type 1 trials.,87,87,0,Go,Go,0.41,0.2,0.05,space,green,vertical,space,3.144772900035605,None,space,1,0.2710250000236556,None,,,,0,0,0,0,0,87,87,87,310.7646268000826,,,,,,,,,,,,,,,,310.7493452000199,310.7646268000826,311.46424260002095,311.46424260002095,311.9638761000242,311.94796330004465,311.9490143000148,311.9638761000242,312.38008000003174,312.56334230001085,312.56334230001085,312.8484262001002,space,1,0.2710250000236556,None,312.85280020011123,313.36270960001275,314.3618430000497,314.3460516000632,,,,,,,,,,000,001,2025-05-03_02h28.35.942,Cued GoNogo Task,2024.2.4,60.03871294935459,2025-05-03 02h28.48.383205 +0200,
block/CondBlock1.xlsx,You are about to start a block of type 1 trials.,88,88,0,NoGo,NoGo,0.15,0.2,0.05,none,green,vertical,space,3.144772900035605,None,space,0,0.16487169999163598,None,,,,0,0,0,0,0,88,88,88,314.3618430000497,,,,,,,,,,,,,,,,314.34634160005953,314.3618430000497,315.0612431000918,315.0612431000918,315.5607590000145,315.5450127000222,315.54545970004983,315.5607590000145,315.71076090005226,315.91041410004254,315.91041410004254,316.07806379999965,space,0,0.16487169999163598,None,316.0812274001073,316.59332380001433,317.5925120000029,317.57675910007674,,,,,,,,,,000,001,2025-05-03_02h28.35.942,Cued GoNogo Task,2024.2.4,60.03871294935459,2025-05-03 02h28.48.383205 +0200,
block/CondBlock1.xlsx,You are about to start a block of type 1 trials.,89,89,0,Go,Go,0.24,0.05,0.2,space,blue,horizontal,space,3.144772900035605,None,space,1,0.28172780002932996,None,,,,0,0,0,0,0,89,89,89,317.5925120000029,,,,,,,,,,,,,,,,317.5770992001053,317.5925120000029,318.2919268000405,318.2919268000405,318.7914995000465,318.7757229000563,318.77639000001363,318.7914995000465,319.0413240001071,319.2245212000562,319.2245212000562,319.5098644000245,space,1,0.28172780002932996,None,319.51434180000797,320.0238918000832,321.02290750003885,321.0073013000656,,,,,,,,,,000,001,2025-05-03_02h28.35.942,Cued GoNogo Task,2024.2.4,60.03871294935459,2025-05-03 02h28.48.383205 +0200,
block/CondBlock1.xlsx,You are about to start a block of type 1 trials.,90,90,0,Go,Go,0.25,0.2,0.05,space,blue,vertical,space,3.144772900035605,None,space,1,0.2110659999307245,None,,,,0,0,0,0,0,90,90,90,321.02290750003885,,,,,,,,,,,,,,,,321.00764810002875,321.02290750003885,321.7222809001105,321.7222809001105,322.2218672001036,322.2060240000719,322.2066796000581,322.2218672001036,322.4719465000089,322.6716039000312,322.6716039000312,322.8894077000441,space,1,0.2110659999307245,None,322.89344370004255,323.4044134001015,324.4034708000254,324.3874668000499,,,,,,,,,,000,001,2025-05-03_02h28.35.942,Cued GoNogo Task,2024.2.4,60.03871294935459,2025-05-03 02h28.48.383205 +0200,
block/CondBlock1.xlsx,You are about to start a block of type 1 trials.,91,91,0,Go,Go,0.26,0.05,0.2,space,green,horizontal,space,3.144772900035605,None,space,1,0.3503711000084877,None,,,,0,0,0,0,0,91,91,91,324.4034708000254,,,,,,,,,,,,,,,,324.38770280010067,324.4034708000254,325.10285290004686,325.10285290004686,325.60250210005324,325.58663670008536,325.58732370007783,325.60250210005324,325.868949500029,326.0520240000915,326.0520240000915,326.4048234000802,space,1,0.3503711000084877,None,326.41108550003264,326.91812850011047,327.91735420003533,327.90132610010915,,,,,,,,,,000,001,2025-05-03_02h28.35.942,Cued GoNogo Task,2024.2.4,60.03871294935459,2025-05-03 02h28.48.383205 +0200,
block/CondBlock1.xlsx,You are about to start a block of type 1 trials.,92,92,0,NoGo,NoGo,0.44,0.2,0.05,none,blue,vertical,space,3.144772900035605,None,space,0,0.22091170004568994,None,,,,0,0,0,0,0,92,92,92,327.91735420003533,,,,,,,,,,,,,,,,327.9016056000255,327.91735420003533,328.61678740009665,328.61678740009665,329.1163326000096,329.1003670000937,329.1009920000797,329.1163326000096,329.5658575000707,329.74914330011234,329.74914330011234,329.9833631000947,space,0,0.22091170004568994,None,329.98790500010364,330.4985310001066,331.4978097000858,331.4818310000701,,,,,,,,,,000,001,2025-05-03_02h28.35.942,Cued GoNogo Task,2024.2.4,60.03871294935459,2025-05-03 02h28.48.383205 +0200,
block/CondBlock1.xlsx,You are about to start a block of type 1 trials.,93,93,0,Go,Go,0.13,0.2,0.05,space,green,vertical,space,3.144772900035605,None,space,1,0.2616093000397086,None,,,,0,0,0,0,0,93,93,93,331.4978097000858,,,,,,,,,,,,,,,,331.48223270010203,331.4978097000858,332.19725409999955,332.19725409999955,332.6967492001131,332.68117380002514,332.6821175001096,332.6967492001131,332.82999390002806,333.0130745000206,333.0130745000206,333.2809835000662,space,1,0.2616093000397086,None,333.28508470009547,333.7956929000793,334.7949074000353,334.77922250004485,,,,,,,,,,000,001,2025-05-03_02h28.35.942,Cued GoNogo Task,2024.2.4,60.03871294935459,2025-05-03 02h28.48.383205 +0200,
block/CondBlock1.xlsx,You are about to start a block of type 1 trials.,94,94,0,Go,Go,0.44,0.05,0.2,space,blue,horizontal,space,3.144772900035605,None,space,1,0.27888929995242506,None,,,,0,0,0,0,0,94,94,94,334.7949074000353,,,,,,,,,,,,,,,,334.77956170006655,334.7949074000353,335.4943945000414,335.4943945000414,335.99400850001257,335.9779721000232,335.9786313000368,335.99400850001257,336.443507200107,336.6269198000664,336.6269198000664,336.91099050000776,space,1,0.27888929995242506,None,336.91472680005245,337.4261391001055,338.4254597000545,338.40943090000656,,,,,,,,,,000,001,2025-05-03_02h28.35.942,Cued GoNogo Task,2024.2.4,60.03871294935459,2025-05-03 02h28.48.383205 +0200,
block/CondBlock1.xlsx,You are about to start a block of type 1 trials.,95,95,0,Go,Go,0.15,0.2,0.05,space,green,vertical,space,3.144772900035605,None,space,1,0.2766487000044435,None,,,,0,0,0,0,0,95,95,95,338.4254597000545,,,,,,,,,,,,,,,,338.40970700001344,338.4254597000545,339.1245385000948,339.1245385000948,339.6243455000222,339.60872940008994,339.6095548000885,339.6243455000222,339.77406950003933,339.9740125000244,339.9740125000244,340.2583258000668,space,1,0.2766487000044435,None,340.2627309000818,340.7739731000038,,341.7728218000848,,,,,,,,,,000,001,2025-05-03_02h28.35.942,Cued GoNogo Task,2024.2.4,60.03871294935459,2025-05-03 02h28.48.383205 +0200,
block/CondBlock1.xlsx,You are about to start a block of type 1 trials.,96,96,0,Go,Go,0.49,0.2,0.05,space,green,vertical,space,3.144772900035605,None,space,1,0.36353309999685735,None,,,,0,0,0,0,0,96,96,96,341.7894147000043,,,,,,,,,,,,,,,,341.7731632000068,341.7894147000043,342.47225230000913,342.48861490003765,342.9716191000771,342.9556906000944,342.9563899000641,342.9716191000771,343.47121920005884,343.6544377000537,343.6544377000537,344.022050700034,space,1,0.36353309999685735,None,344.0269472000655,344.53694080002606,345.53598540008534,345.52062630001456,,,,,,,,,,000,001,2025-05-03_02h28.35.942,Cued GoNogo Task,2024.2.4,60.03871294935459,2025-05-03 02h28.48.383205 +0200,
block/CondBlock1.xlsx,You are about to start a block of type 1 trials.,97,97,0,Go,Go,0.11,0.2,0.05,space,blue,vertical,space,3.144772900035605,None,space,1,0.29542839992791414,None,,,,0,0,0,0,0,97,97,97,345.53598540008534,,,,,,,,,,,,,,,,345.5209972000448,345.53598540008534,346.2355005000718,346.2355005000718,346.7351533001056,346.71909610007424,346.7196626000805,346.7351533001056,346.85174870002083,347.03501720004715,347.03501720004715,347.3359784000786,space,1,0.29542839992791414,None,347.3400505000027,347.8509031001013,348.850235800026,348.8343565000687,,,,,,,,,,000,001,2025-05-03_02h28.35.942,Cued GoNogo Task,2024.2.4,60.03871294935459,2025-05-03 02h28.48.383205 +0200,
block/CondBlock1.xlsx,You are about to start a block of type 1 trials.,98,98,0,Go,Go,0.26,0.05,0.2,space,green,horizontal,space,3.144772900035605,None,space,1,0.2389236999442801,None,,,,0,0,0,0,0,98,98,98,348.850235800026,,,,,,,,,,,,,,,,348.8346957000904,348.850235800026,349.5495996000245,349.5495996000245,350.0491464000661,350.0329361000331,350.0335286000045,350.0491464000661,350.3154198001139,350.49869830009993,350.49869830009993,350.74954010010697,space,1,0.2389236999442801,None,350.7534804000752,351.2646662000334,352.2639562000986,352.2479100000346,,,,,,,,,,000,001,2025-05-03_02h28.35.942,Cued GoNogo Task,2024.2.4,60.03871294935459,2025-05-03 02h28.48.383205 +0200,
block/CondBlock1.xlsx,You are about to start a block of type 1 trials.,99,99,0,Go,Go,0.28,0.05,0.2,space,green,horizontal,space,3.144772900035605,None,space,1,0.2647562000202015,None,,,,0,0,0,0,0,99,99,99,352.2639562000986,,,,,,,,,,,,,,,,352.24810350011103,352.2639562000986,352.9634792000288,352.9634792000288,353.4629590000259,353.44702130008955,353.44765750004444,353.4629590000259,353.74615890008863,353.92924490000587,353.92924490000587,354.1980454000877,space,1,0.2647562000202015,None,354.20352620002814,354.71217720001005,,355.7111690000165,,,,,,,,,,000,001,2025-05-03_02h28.35.942,Cued GoNogo Task,2024.2.4,60.03871294935459,2025-05-03 02h28.48.383205 +0200,
block/CondBlock1.xlsx,You are about to start a block of type 1 trials.,0,0,0,,,,,,,,,space,3.144772900035605,None,,,,,space,1.1857741000130773,None,0,0,0,0,,,,,,,,,,,,,,,,,,,,,,,,,,,,,,,,,,,,,,,,,,,355.72409360005986,355.7276577000739,355.7276577000739,356.92789750010706,space,1.1857741000130773,None,000,001,2025-05-03_02h28.35.942,Cued GoNogo Task,2024.2.4,60.03871294935459,2025-05-03 02h28.48.383205 +0200,
block/CondBlock2.xlsx,You are about to start a block of type 2 trials.,0,0,0,Go,Go,0.18,0.05,0.2,space,green,horizontal,space,147.2907552999677,None,space,1,0.29304230003617704,None,,,,0,1,1,1,0,0,0,0,504.2844393000705,,,,,,,,,356.93285340000875,356.94331790006254,356.94331790006254,504.24101540003903,space,147.2907552999677,None,504.2821626000805,504.2844393000705,504.9549089000793,504.9884355000686,505.45480400009546,505.43899510009214,505.4399232000578,505.45480400009546,505.6379597000778,505.8211933000712,505.8211933000712,506.1219463000307,space,1,0.29304230003617704,None,506.1258852001047,506.6370822000317,507.6363317000214,507.6204840000719,,,,,,,,,,000,001,2025-05-03_02h28.35.942,Cued GoNogo Task,2024.2.4,60.03871294935459,2025-05-03 02h28.48.383205 +0200,
block/CondBlock2.xlsx,You are about to start a block of type 2 trials.,1,1,0,Go,Go,0.2,0.2,0.05,space,green,vertical,space,147.2907552999677,None,space,1,0.2237029999960214,None,,,,0,1,1,1,0,1,1,1,507.6363317000214,,,,,,,,,,,,,,,,507.62086340005044,507.6363317000214,508.3356382000493,508.3356382000493,508.83525170001667,508.8190771000227,508.8195826000301,508.83525170001667,509.0350241000997,509.2347204000689,509.2347204000689,509.46917270007543,space,1,0.2237029999960214,None,509.4726920000976,509.98425050009973,510.98336690000724,510.96758690010756,,,,,,,,,,000,001,2025-05-03_02h28.35.942,Cued GoNogo Task,2024.2.4,60.03871294935459,2025-05-03 02h28.48.383205 +0200,
block/CondBlock2.xlsx,You are about to start a block of type 2 trials.,2,2,0,Go,Go,0.22,0.05,0.2,space,blue,horizontal,space,147.2907552999677,None,space,1,0.26674390002153814,None,,,,0,1,1,1,0,2,2,2,510.98336690000724,,,,,,,,,,,,,,,,510.9679148000432,510.98336690000724,511.68285880004987,511.68285880004987,512.1825110000791,512.1664909000974,512.1671046999982,512.1825110000791,512.4155342000304,512.5988652000669,512.5988652000669,512.8680788000347,space,1,0.26674390002153814,None,512.8719769000309,513.3815554000903,514.380615000031,514.3647030000575,,,,,,,,,,000,001,2025-05-03_02h28.35.942,Cued GoNogo Task,2024.2.4,60.03871294935459,2025-05-03 02h28.48.383205 +0200,
block/CondBlock2.xlsx,You are about to start a block of type 2 trials.,3,3,0,Go,Go,0.14,0.05,0.2,space,green,horizontal,space,147.2907552999677,None,space,1,0.28972510003950447,None,,,,0,1,1,1,0,3,3,3,514.380615000031,,,,,,,,,,,,,,,,514.3649866000051,514.380615000031,515.0799710000865,515.0799710000865,515.5796239000047,515.5637373001082,515.5643648001133,515.5796239000047,515.7295864000916,515.9127290000906,515.9127290000906,516.2135542000178,space,1,0.28972510003950447,None,516.2182065000525,516.7285797001095,517.7279504000908,517.7120801000856,,,,,,,,,,000,001,2025-05-03_02h28.35.942,Cued GoNogo Task,2024.2.4,60.03871294935459,2025-05-03 02h28.48.383205 +0200,
block/CondBlock2.xlsx,You are about to start a block of type 2 trials.,4,4,0,Go,Go,0.26,0.05,0.2,space,blue,horizontal,space,147.2907552999677,None,space,1,0.25066729995887727,None,,,,0,1,1,1,0,4,4,4,517.7279504000908,,,,,,,,,,,,,,,,517.712327000103,517.7279504000908,518.4272884000093,518.4272884000093,518.926829700009,518.9112147000851,518.9119607000612,518.926829700009,519.1933111000108,519.3765128001105,519.3765128001105,519.643857600051,space,1,0.25066729995887727,None,519.6475916000782,520.1591529001016,521.1584026000928,521.1431055000285,,,,,,,,,,000,001,2025-05-03_02h28.35.942,Cued GoNogo Task,2024.2.4,60.03871294935459,2025-05-03 02h28.48.383205 +0200,
block/CondBlock2.xlsx,You are about to start a block of type 2 trials.,5,5,0,Go,Go,0.1,0.05,0.2,space,blue,horizontal,space,147.2907552999677,None,space,1,0.3052066001109779,None,,,,0,1,1,1,0,5,5,5,521.1584026000928,,,,,,,,,,,,,,,,521.1435077000642,521.1584026000928,521.8578186000232,521.8578186000232,522.3574058000231,522.3417085000547,522.3425024000462,522.3574058000231,522.4572787000798,522.6571421000408,522.6571421000408,522.9747980000684,space,1,0.3052066001109779,None,522.979658300057,523.4900034000166,,524.4892994000111,,,,,,,,,,000,001,2025-05-03_02h28.35.942,Cued GoNogo Task,2024.2.4,60.03871294935459,2025-05-03 02h28.48.383205 +0200,
block/CondBlock2.xlsx,You are about to start a block of type 2 trials.,6,6,0,NoGo,NoGo,0.3,0.2,0.05,none,green,vertical,space,147.2907552999677,None,None,1,,,,,,0,1,1,1,0,6,6,6,524.5055164000951,,,,,,,,,,,,,,,,524.4895745000103,524.5055164000951,525.188533000066,525.2049415000947,525.6880033001071,525.6719762000721,525.6726473000599,525.6880033001071,525.9877838001121,526.1874704000074,526.1874704000074,526.6712623001076,None,1,,,526.6735566999996,527.1866395000834,528.1857816000702,528.1698862001067,526.6871082000434,526.6871082000434,,,,,,,,000,001,2025-05-03_02h28.35.942,Cued GoNogo Task,2024.2.4,60.03871294935459,2025-05-03 02h28.48.383205 +0200,
block/CondBlock2.xlsx,You are about to start a block of type 2 trials.,7,7,0,NoGo,NoGo,0.14,0.05,0.2,none,blue,horizontal,space,147.2907552999677,None,None,1,,,,,,0,1,1,1,0,7,7,7,528.1857816000702,,,,,,,,,,,,,,,,528.1701252000639,528.1857816000702,528.8854005000321,528.8854005000321,529.3850012000185,529.3689304,529.3697001000401,529.3850012000185,529.5348088000901,529.7178722000681,529.7178722000681,530.2017635001102,None,1,,,530.2022845000029,530.7171007000143,531.7166249000002,531.7004315000959,530.2174786000978,530.2174786000978,,,,,,,,000,001,2025-05-03_02h28.35.942,Cued GoNogo Task,2024.2.4,60.03871294935459,2025-05-03 02h28.48.383205 +0200,
block/CondBlock2.xlsx,You are about to start a block of type 2 trials.,8,8,0,Go,Go,0.13,0.2,0.05,space,blue,vertical,space,147.2907552999677,None,None,0,,,,,,0,1,1,1,0,8,8,8,531.7166249000002,,,,,,,,,,,,,,,,531.7007480000611,531.7166249000002,532.4157296000049,532.4157296000049,532.9155329000205,532.8992560000625,532.8998027000343,532.9155329000205,533.0485788000515,533.2318524000002,533.2318524000002,533.7168314000592,None,0,,,533.7233514001127,534.2310055000708,535.2303919000551,535.2143600001,533.731302900007,533.731302900007,,,,,,,,000,001,2025-05-03_02h28.35.942,Cued GoNogo Task,2024.2.4,60.03871294935459,2025-05-03 02h28.48.383205 +0200,
block/CondBlock2.xlsx,You are about to start a block of type 2 trials.,9,9,0,Go,Go,0.43,0.2,0.05,space,green,vertical,space,147.2907552999677,None,space,1,0.12357379996683449,None,,,,0,1,1,1,0,9,9,9,535.2303919000551,,,,,,,,,,,,,,,,535.2146323000779,535.2303919000551,535.9295458000852,535.9295458000852,536.4291511001065,536.4130773000652,536.4136622000951,536.4291511001065,536.8621174000436,537.0619084000355,537.0619084000355,537.1965764000779,space,1,0.12357379996683449,None,537.2008899000939,537.7113955001114,538.7104885000736,538.6946326000616,,,,,,,,,,000,001,2025-05-03_02h28.35.942,Cued GoNogo Task,2024.2.4,60.03871294935459,2025-05-03 02h28.48.383205 +0200,
block/CondBlock2.xlsx,You are about to start a block of type 2 trials.,10,10,0,Go,Go,0.14,0.2,0.05,space,green,vertical,space,147.2907552999677,None,space,1,0.14339270000346005,None,,,,0,1,1,1,0,10,10,10,538.7104885000736,,,,,,,,,,,,,,,,538.6948910000501,538.7104885000736,539.4100239000982,539.4100239000982,539.9096963000484,539.8939314000309,539.8945578000275,539.9096963000484,540.059369500028,540.2428954000352,540.2428954000352,540.3940357000101,space,1,0.14339270000346005,None,540.3976641000481,540.9087902000174,541.9079750000965,541.8922832000535,,,,,,,,,,000,001,2025-05-03_02h28.35.942,Cued GoNogo Task,2024.2.4,60.03871294935459,2025-05-03 02h28.48.383205 +0200,
block/CondBlock2.xlsx,You are about to start a block of type 2 trials.,11,11,0,Go,Go,0.27,0.2,0.05,space,green,vertical,space,147.2907552999677,None,space,1,0.1730938000837341,None,,,,0,1,1,1,0,11,11,11,541.9079750000965,,,,,,,,,,,,,,,,541.8925616000779,541.9079750000965,542.6074589000782,542.6074589000782,543.1070167000871,543.0907892000396,543.0913495999994,543.1070167000871,543.3902316000313,543.573269900051,543.573269900051,543.7576983000617,space,1,0.1730938000837341,None,543.7630700001027,544.2727667000145,545.2717016000533,545.2560092000058,,,,,,,,,,000,001,2025-05-03_02h28.35.942,Cued GoNogo Task,2024.2.4,60.03871294935459,2025-05-03 02h28.48.383205 +0200,
block/CondBlock2.xlsx,You are about to start a block of type 2 trials.,12,12,0,Go,Go,0.3,0.05,0.2,space,green,horizontal,space,147.2907552999677,None,space,1,0.15133079991210252,None,,,,0,1,1,1,0,12,12,12,545.2717016000533,,,,,,,,,,,,,,,,545.2562657000963,545.2717016000533,545.9713602000847,545.9713602000847,546.4709927000804,546.4550254000351,546.4557401000056,546.4709927000804,546.7704491000623,546.9705198000884,546.9705198000884,547.1378375000786,space,1,0.15133079991210252,None,547.1414482000982,547.6532984001096,548.6523288000608,548.636481900001,,,,,,,,,,000,001,2025-05-03_02h28.35.942,Cued GoNogo Task,2024.2.4,60.03871294935459,2025-05-03 02h28.48.383205 +0200,
block/CondBlock2.xlsx,You are about to start a block of type 2 trials.,13,13,0,Go,Go,0.18,0.2,0.05,space,blue,vertical,space,147.2907552999677,None,space,1,0.1615162999369204,None,,,,0,1,1,1,0,13,13,13,548.6523288000608,,,,,,,,,,,,,,,,548.6367145000258,548.6523288000608,549.3520559000317,549.3520559000317,549.8515289000934,549.8356249000644,549.8362382000778,549.8515289000934,550.0347271000501,550.2177816000767,550.2177816000767,550.3853901000693,space,1,0.1615162999369204,None,550.3906758000376,550.9006827000994,,551.8998723000987,,,,,,,,,,000,001,2025-05-03_02h28.35.942,Cued GoNogo Task,2024.2.4,60.03871294935459,2025-05-03 02h28.48.383205 +0200,
block/CondBlock2.xlsx,You are about to start a block of type 2 trials.,14,14,0,Go,Go,0.13,0.2,0.05,space,green,vertical,space,147.2907552999677,None,space,1,0.17072209995239973,None,,,,0,1,1,1,0,14,14,14,551.9162422000663,,,,,,,,,,,,,,,,551.9001605000813,551.9162422000663,552.5992078999989,552.6157305000816,553.0987658000086,553.082737000077,553.08336160006,553.0987658000086,553.2319992000703,553.4150962000713,553.4150962000713,553.5996139000636,space,1,0.17072209995239973,None,553.606338600046,554.114638100029,555.1137584000826,555.0976576000685,,,,,,,,,,000,001,2025-05-03_02h28.35.942,Cued GoNogo Task,2024.2.4,60.03871294935459,2025-05-03 02h28.48.383205 +0200,
block/CondBlock2.xlsx,You are about to start a block of type 2 trials.,15,15,0,Go,Go,0.18,0.2,0.05,space,blue,vertical,space,147.2907552999677,None,space,1,0.20258519996423274,None,,,,0,1,1,1,0,15,15,15,555.1137584000826,,,,,,,,,,,,,,,,555.0978425000794,555.1137584000826,555.8130938000977,555.8130938000977,556.3127997000702,556.2967273000395,556.2971737000626,556.3127997000702,556.4959777001059,556.6789793000789,556.6789793000789,556.8971143000526,space,1,0.20258519996423274,None,556.9022865000879,557.4119863000233,558.4113028000575,558.3952248001006,,,,,,,,,,000,001,2025-05-03_02h28.35.942,Cued GoNogo Task,2024.2.4,60.03871294935459,2025-05-03 02h28.48.383205 +0200,
block/CondBlock2.xlsx,You are about to start a block of type 2 trials.,16,16,0,Go,Go,0.24,0.2,0.05,space,green,vertical,space,147.2907552999677,None,space,1,0.1598357999464497,None,,,,0,1,1,1,0,16,16,16,558.4113028000575,,,,,,,,,,,,,,,,558.3955008001067,558.4113028000575,559.1104945000261,559.1104945000261,559.6099633000558,559.5941261000698,559.594788000104,559.6099633000558,559.8599167000502,560.0429743001005,560.0429743001005,560.2107644000789,space,1,0.1598357999464497,None,560.2147561000893,560.7258775000228,561.7248476000968,561.7091155000962,,,,,,,,,,000,001,2025-05-03_02h28.35.942,Cued GoNogo Task,2024.2.4,60.03871294935459,2025-05-03 02h28.48.383205 +0200,
block/CondBlock2.xlsx,You are about to start a block of type 2 trials.,17,17,0,Go,Go,0.26,0.2,0.05,space,blue,vertical,space,147.2907552999677,None,space,1,0.14937040000222623,None,,,,0,1,1,1,0,17,17,17,561.7248476000968,,,,,,,,,,,,,,,,561.709646100062,561.7248476000968,562.42449330003,562.42449330003,562.924037400051,562.908291400061,562.9089208000805,562.924037400051,563.1903275001096,563.3735851000529,563.3735851000529,563.5262021000963,space,1,0.14937040000222623,None,563.531960900058,564.039683500072,565.038808500045,565.023442100035,,,,,,,,,,000,001,2025-05-03_02h28.35.942,Cued GoNogo Task,2024.2.4,60.03871294935459,2025-05-03 02h28.48.383205 +0200,
block/CondBlock2.xlsx,You are about to start a block of type 2 trials.,18,18,0,Go,Go,0.1,0.05,0.2,space,blue,horizontal,space,147.2907552999677,None,space,1,0.14367680007126182,None,,,,0,1,1,1,0,18,18,18,565.038808500045,,,,,,,,,,,,,,,,565.02375510009,565.038808500045,565.7383286000695,565.7383286000695,566.2378763000015,566.2224395000376,566.2234060000628,566.2378763000015,566.337939600111,566.5377247000579,566.5377247000579,566.6887798000826,space,1,0.14367680007126182,None,566.6922811000841,567.187159000081,568.186198700103,568.1706093000248,,,,,,,,,,000,001,2025-05-03_02h28.35.942,Cued GoNogo Task,2024.2.4,60.03871294935459,2025-05-03 02h28.48.383205 +0200,
block/CondBlock2.xlsx,You are about to start a block of type 2 trials.,19,19,0,Go,Go,0.46,0.2,0.05,space,blue,vertical,space,147.2907552999677,None,space,1,0.11857590009458363,None,,,,0,1,1,1,0,19,19,19,568.186198700103,,,,,,,,,,,,,,,,568.170930000022,568.2029902000213,568.9024775000289,568.9024775000289,569.4021002000663,569.3863237000769,569.3870180000085,569.4021002000663,569.8682544000912,570.0513165000593,570.0513165000593,570.186160900048,space,1,0.11857590009458363,None,570.191409900086,570.701048900024,571.7001663000556,571.6846687000943,,,,,,,,,,000,001,2025-05-03_02h28.35.942,Cued GoNogo Task,2024.2.4,60.03871294935459,2025-05-03 02h28.48.383205 +0200,
block/CondBlock2.xlsx,You are about to start a block of type 2 trials.,20,20,0,Go,Go,0.3,0.05,0.2,space,blue,horizontal,space,147.2907552999677,None,space,1,0.14779610000550747,None,,,,0,1,1,1,0,20,20,20,571.7001663000556,,,,,,,,,,,,,,,,571.6849264000775,571.7001663000556,572.399618400028,572.399618400028,572.8990793999983,572.8832868000027,572.8839737001108,572.8990793999983,573.1988490000367,573.3989153000293,573.3989153000293,573.5497571000597,space,1,0.14779610000550747,None,573.5523921001004,574.0649320000084,575.0640939000295,575.04825360002,,,,,,,,,,000,001,2025-05-03_02h28.35.942,Cued GoNogo Task,2024.2.4,60.03871294935459,2025-05-03 02h28.48.383205 +0200,
block/CondBlock2.xlsx,You are about to start a block of type 2 trials.,21,21,0,Go,Go,0.23,0.05,0.2,space,green,horizontal,space,147.2907552999677,None,space,1,0.22758449998218566,None,,,,0,1,1,1,0,21,21,21,575.0640939000295,,,,,,,,,,,,,,,,575.0485442000208,575.0640939000295,575.7634778000647,575.7634778000647,576.2630867999978,576.2469499000581,576.2476023000199,576.2630867999978,576.4961323000025,576.6793212000048,576.6793212000048,576.9137398001039,space,1,0.22758449998218566,None,576.9174967000727,577.4288395000622,578.4278242000146,578.4118980000494,,,,,,,,,,000,001,2025-05-03_02h28.35.942,Cued GoNogo Task,2024.2.4,60.03871294935459,2025-05-03 02h28.48.383205 +0200,
block/CondBlock2.xlsx,You are about to start a block of type 2 trials.,22,22,0,Go,Go,0.19,0.2,0.05,space,green,vertical,space,147.2907552999677,None,space,1,0.15206710004713386,None,,,,0,1,1,1,0,22,22,22,578.4278242000146,,,,,,,,,,,,,,,,578.4121212000027,578.4278242000146,579.1274110000813,579.1274110000813,579.6270541000413,579.6111781001091,579.6119404000929,579.6270541000413,579.8269358000252,580.0099761000602,580.0099761000602,580.1776702000061,space,1,0.15206710004713386,None,580.1815944000846,580.6928827000083,581.6919664000161,581.6761504000751,,,,,,,,,,000,001,2025-05-03_02h28.35.942,Cued GoNogo Task,2024.2.4,60.03871294935459,2025-05-03 02h28.48.383205 +0200,
block/CondBlock2.xlsx,You are about to start a block of type 2 trials.,23,23,0,NoGo,NoGo,0.41,0.2,0.05,none,blue,vertical,space,147.2907552999677,None,None,1,,,,,,0,1,1,1,0,23,23,23,581.6919664000161,,,,,,,,,,,,,,,,581.6764913001098,581.6919664000161,582.3913947000401,582.3913947000401,582.8908932000631,582.8750671000453,582.8758661000757,582.8908932000631,583.3074017000617,583.490421500057,583.490421500057,583.974123800057,None,1,,,583.9766855000053,584.4896313000936,585.4889781000093,585.4728296000976,583.9899081001058,583.9899081001058,,,,,,,,000,001,2025-05-03_02h28.35.942,Cued GoNogo Task,2024.2.4,60.03871294935459,2025-05-03 02h28.48.383205 +0200,
block/CondBlock2.xlsx,You are about to start a block of type 2 trials.,24,24,0,Go,Go,0.17,0.2,0.05,space,blue,vertical,space,147.2907552999677,None,space,1,0.18766860000323504,None,,,,0,1,1,1,0,24,24,24,585.4889781000093,,,,,,,,,,,,,,,,585.4731065001106,585.4889781000093,586.1883546001045,586.1883546001045,586.6877037000377,586.6723197000101,586.672997500049,586.6877037000377,586.871078300057,587.0541362001095,587.0541362001095,587.2552998000756,space,1,0.18766860000323504,None,587.2588959001005,587.7701749000698,588.7695164000615,588.7537866000785,,,,,,,,,,000,001,2025-05-03_02h28.35.942,Cued GoNogo Task,2024.2.4,60.03871294935459,2025-05-03 02h28.48.383205 +0200,
block/CondBlock2.xlsx,You are about to start a block of type 2 trials.,25,25,0,Go,Go,0.27,0.05,0.2,space,blue,horizontal,space,147.2907552999677,None,space,1,0.2712945999810472,None,,,,0,1,1,1,0,25,25,25,588.7695164000615,,,,,,,,,,,,,,,,588.7541991000762,588.7695164000615,589.4688457000302,589.4688457000302,589.9682680000551,589.9528688000282,589.9533883000258,589.9682680000551,590.2516117000487,590.4348602000391,590.4348602000391,590.7190852001077,space,1,0.2712945999810472,None,590.7241730000824,591.2342350000981,592.2333416000474,592.217343700002,,,,,,,,,,000,001,2025-05-03_02h28.35.942,Cued GoNogo Task,2024.2.4,60.03871294935459,2025-05-03 02h28.48.383205 +0200,
block/CondBlock2.xlsx,You are about to start a block of type 2 trials.,26,26,0,Go,Go,0.26,0.05,0.2,space,green,horizontal,space,147.2907552999677,None,space,1,0.16040549997705966,None,,,,0,1,1,1,0,26,26,26,592.2333416000474,,,,,,,,,,,,,,,,592.2176196000073,592.2333416000474,592.9326412000228,592.9326412000228,593.4321676000254,593.4163535000989,593.4169976999983,593.4321676000254,593.6987792000873,593.8819087001029,593.8819087001029,594.0497441000771,space,1,0.16040549997705966,None,594.0541580000427,594.5646716000047,595.5638470000122,595.5483524000738,,,,,,,,,,000,001,2025-05-03_02h28.35.942,Cued GoNogo Task,2024.2.4,60.03871294935459,2025-05-03 02h28.48.383205 +0200,
block/CondBlock2.xlsx,You are about to start a block of type 2 trials.,27,27,0,Go,Go,0.22,0.2,0.05,space,green,vertical,space,147.2907552999677,None,space,1,0.21532179997302592,None,,,,0,1,1,1,0,27,27,27,595.5638470000122,,,,,,,,,,,,,,,,595.5488229000475,595.5638470000122,596.2632100000046,596.2632100000046,596.7629171001026,596.7471550001064,596.7479794000974,596.7629171001026,596.9960806000745,597.1790977000492,597.1790977000492,597.3975159000838,space,1,0.21532179997302592,None,597.4017375000985,597.9119412000291,598.9110395000316,598.895029700012,,,,,,,,,,000,001,2025-05-03_02h28.35.942,Cued GoNogo Task,2024.2.4,60.03871294935459,2025-05-03 02h28.48.383205 +0200,
block/CondBlock2.xlsx,You are about to start a block of type 2 trials.,28,28,0,Go,Go,0.19,0.05,0.2,space,blue,horizontal,space,147.2907552999677,None,space,1,0.14076879993081093,None,,,,0,1,1,1,0,28,28,28,598.9110395000316,,,,,,,,,,,,,,,,598.8952323000412,598.9110395000316,599.610705500003,599.610705500003,600.1100878000725,600.0941122000804,600.0947977000615,600.1100878000725,600.3099703000626,600.4932029000483,600.4932029000483,600.6445074001094,space,1,0.14076879993081093,None,600.64893330005,601.1590319001116,602.1583853000775,602.1425818999996,,,,,,,,,,000,001,2025-05-03_02h28.35.942,Cued GoNogo Task,2024.2.4,60.03871294935459,2025-05-03 02h28.48.383205 +0200,
block/CondBlock2.xlsx,You are about to start a block of type 2 trials.,29,29,0,Go,Go,0.18,0.05,0.2,space,blue,horizontal,space,147.2907552999677,None,space,1,0.15892010007519275,None,,,,0,1,1,1,0,29,29,29,602.1583853000775,,,,,,,,,,,,,,,,602.1429466000991,602.1583853000775,602.8577940000687,602.8577940000687,603.3573534000898,603.341659000027,603.3422777000815,603.3573534000898,603.5405179000227,603.7236711001024,603.7236711001024,603.89144580008,space,1,0.15892010007519275,None,603.8956777000567,604.4068008000031,,605.4061033000471,,,,,,,,,,000,001,2025-05-03_02h28.35.942,Cued GoNogo Task,2024.2.4,60.03871294935459,2025-05-03 02h28.48.383205 +0200,
block/CondBlock2.xlsx,You are about to start a block of type 2 trials.,30,30,0,NoGo,NoGo,0.23,0.2,0.05,none,blue,vertical,space,147.2907552999677,None,space,0,0.19620730006136,None,,,,0,1,1,1,0,30,30,30,605.4224924000446,,,,,,,,,,,,,,,,605.4065279000206,605.4224924000446,606.1051472000545,606.1217482000357,606.6046146000735,606.5889613000909,606.5896209001075,606.6046146000735,606.837937900098,607.0211337000364,607.0211337000364,607.2219102000818,space,0,0.19620730006136,None,607.2276018001139,607.7370932000922,608.7363686000463,608.720493700006,,,,,,,,,,000,001,2025-05-03_02h28.35.942,Cued GoNogo Task,2024.2.4,60.03871294935459,2025-05-03 02h28.48.383205 +0200,
block/CondBlock2.xlsx,You are about to start a block of type 2 trials.,31,31,0,Go,Go,0.43,0.2,0.05,space,green,vertical,space,147.2907552999677,None,space,1,0.14619509992189705,None,,,,0,1,1,1,0,31,31,31,608.7363686000463,,,,,,,,,,,,,,,,608.7207627000753,608.7363686000463,609.4357173000462,609.4357173000462,609.9353335000342,609.9193237000145,609.9198314000387,609.9353335000342,610.368383300025,610.5514352000318,610.5514352000318,610.7024184000911,space,1,0.14619509992189705,None,610.706362200086,611.217628100072,612.2168868000153,612.201048900024,,,,,,,,,,000,001,2025-05-03_02h28.35.942,Cued GoNogo Task,2024.2.4,60.03871294935459,2025-05-03 02h28.48.383205 +0200,
block/CondBlock2.xlsx,You are about to start a block of type 2 trials.,32,32,0,Go,Go,0.13,0.05,0.2,space,blue,horizontal,space,147.2907552999677,None,space,1,0.22229060006793588,None,,,,0,1,1,1,0,32,32,32,612.2168868000153,,,,,,,,,,,,,,,,612.2014901000075,612.2168868000153,612.9163695001043,612.9163695001043,613.4157242000801,613.3999598000664,613.4005745000904,613.4157242000801,613.5491505000973,613.7322375000222,613.7322375000222,613.9663499000017,space,1,0.22229060006793588,None,613.9717949000187,614.4815456001088,615.4807836000109,615.4650313000893,,,,,,,,,,000,001,2025-05-03_02h28.35.942,Cued GoNogo Task,2024.2.4,60.03871294935459,2025-05-03 02h28.48.383205 +0200,
block/CondBlock2.xlsx,You are about to start a block of type 2 trials.,33,33,0,Go,Go,0.45,0.05,0.2,space,green,horizontal,space,147.2907552999677,None,space,1,0.11363140004687011,None,,,,0,1,1,1,0,33,33,33,615.4807836000109,,,,,,,,,,,,,,,,615.4653681000927,615.4807836000109,616.1800273000263,616.1800273000263,616.679933700012,616.6641242000042,616.6647929000901,616.679933700012,617.1294058000203,617.3292975000804,617.3292975000804,617.4471397000598,space,1,0.11363140004687011,None,617.4514009000268,617.9619173000101,618.9612778000301,618.9453290000092,,,,,,,,,,000,001,2025-05-03_02h28.35.942,Cued GoNogo Task,2024.2.4,60.03871294935459,2025-05-03 02h28.48.383205 +0200,
block/CondBlock2.xlsx,You are about to start a block of type 2 trials.,34,34,0,Go,Go,0.14,0.2,0.05,space,blue,vertical,space,147.2907552999677,None,space,1,0.15670639998279512,None,,,,0,1,1,1,0,34,34,34,618.9612778000301,,,,,,,,,,,,,,,,618.9456576000666,618.9612778000301,619.66062650003,619.66062650003,620.1603467001114,620.1446064000484,620.1452918000286,620.1603467001114,620.310157500091,620.493302600109,620.493302600109,620.6612005000934,space,1,0.15670639998279512,None,620.6658899000613,621.1763743000338,,622.175358400098,,,,,,,,,,000,001,2025-05-03_02h28.35.942,Cued GoNogo Task,2024.2.4,60.03871294935459,2025-05-03 02h28.48.383205 +0200,
block/CondBlock2.xlsx,You are about to start a block of type 2 trials.,35,35,0,Go,Go,0.11,0.2,0.05,space,blue,vertical,space,147.2907552999677,None,space,1,0.15944089996628463,None,,,,0,1,1,1,0,35,35,35,622.1919206000166,,,,,,,,,,,,,,,,622.1756082000211,622.1919206000166,622.8747373000951,622.8912935000844,623.3744285000721,623.3582280999981,623.358775800094,623.3744285000721,623.4908755000215,623.6740566000808,623.6740566000808,623.8421385000693,space,1,0.15944089996628463,None,623.8465230000438,624.357023300021,,625.355976000079,,,,,,,,,,000,001,2025-05-03_02h28.35.942,Cued GoNogo Task,2024.2.4,60.03871294935459,2025-05-03 02h28.48.383205 +0200,
block/CondBlock2.xlsx,You are about to start a block of type 2 trials.,36,36,0,Go,Go,0.15,0.05,0.2,space,green,horizontal,space,147.2907552999677,None,space,1,0.14653230004478246,None,,,,0,1,1,1,0,36,36,36,625.3729419000447,,,,,,,,,,,,,,,,625.3561873000581,625.3729419000447,626.0552427000366,626.088674700004,626.5551142001059,626.5392463000026,626.5398797000526,626.5551142001059,626.7049378000665,626.9047918000724,626.9047918000724,627.0557361000683,space,1,0.14653230004478246,None,627.0596847000998,627.5709302000469,628.5700943000847,628.5538410000736,,,,,,,,,,000,001,2025-05-03_02h28.35.942,Cued GoNogo Task,2024.2.4,60.03871294935459,2025-05-03 02h28.48.383205 +0200,
block/CondBlock2.xlsx,You are about to start a block of type 2 trials.,37,37,0,Go,Go,0.15,0.2,0.05,space,green,vertical,space,147.2907552999677,None,space,1,0.12312220002058893,None,,,,0,1,1,1,0,37,37,37,628.5700943000847,,,,,,,,,,,,,,,,628.554044400109,628.5700943000847,629.2693845001049,629.2693845001049,629.7689092000946,629.7530343000544,629.7537011000095,629.7689092000946,629.9188816000242,630.1187208000338,630.1187208000338,630.2528933000285,space,1,0.12312220002058893,None,630.2559645000147,630.7682166000595,631.7672946000239,631.7515722000971,,,,,,,,,,000,001,2025-05-03_02h28.35.942,Cued GoNogo Task,2024.2.4,60.03871294935459,2025-05-03 02h28.48.383205 +0200,
block/CondBlock2.xlsx,You are about to start a block of type 2 trials.,38,38,0,NoGo,NoGo,0.14,0.2,0.05,none,green,vertical,space,147.2907552999677,None,None,1,,,,,,0,1,1,1,0,38,38,38,631.7672946000239,,,,,,,,,,,,,,,,631.751864900114,631.7672946000239,632.4667708000634,632.4667708000634,632.9661769000813,632.9500232000137,632.950474500074,632.9661769000813,633.1161677000346,633.2994165000273,633.2994165000273,633.7829673000379,None,1,,,633.7846755000064,634.2986874000635,635.2978660000954,635.2818428000901,633.7988011999987,633.7988011999987,,,,,,,,000,001,2025-05-03_02h28.35.942,Cued GoNogo Task,2024.2.4,60.03871294935459,2025-05-03 02h28.48.383205 +0200,
block/CondBlock2.xlsx,You are about to start a block of type 2 trials.,39,39,0,Go,Go,0.46,0.2,0.05,space,green,vertical,space,147.2907552999677,None,space,1,0.16025729989632964,None,,,,0,1,1,1,0,39,39,39,635.2978660000954,,,,,,,,,,,,,,,,635.2820617000107,635.2978660000954,635.9972059000283,635.9972059000283,636.4966982000042,636.4809750000713,636.4813790000044,636.4966982000042,636.9629975000862,637.146188300103,637.146188300103,637.314023300074,space,1,0.16025729989632964,None,637.3171057000291,637.829052700079,638.8281480000587,638.8128992000129,,,,,,,,,,000,001,2025-05-03_02h28.35.942,Cued GoNogo Task,2024.2.4,60.03871294935459,2025-05-03 02h28.48.383205 +0200,
block/CondBlock2.xlsx,You are about to start a block of type 2 trials.,40,40,0,Go,Go,0.5,0.05,0.2,space,blue,horizontal,space,147.2907552999677,None,space,1,0.16382519993931055,None,,,,0,1,1,1,0,40,40,40,638.8281480000587,,,,,,,,,,,,,,,,638.8134029000066,638.8281480000587,639.5276193000609,639.5276193000609,640.0272147000069,640.0113711000886,640.0119822000852,640.0272147000069,640.5269865000155,640.726612700033,640.726612700033,640.894171699998,space,1,0.16382519993931055,None,640.8977102000499,641.4095641000895,642.4085477000335,642.3927263000514,,,,,,,,,,000,001,2025-05-03_02h28.35.942,Cued GoNogo Task,2024.2.4,60.03871294935459,2025-05-03 02h28.48.383205 +0200,
block/CondBlock2.xlsx,You are about to start a block of type 2 trials.,41,41,0,Go,Go,0.16,0.05,0.2,space,green,horizontal,space,147.2907552999677,None,space,1,0.18873900000471622,None,,,,0,1,1,1,0,41,41,41,642.4085477000335,,,,,,,,,,,,,,,,642.393003800069,642.4085477000335,643.1080357000465,643.1080357000465,643.6077644000761,643.5920215001097,643.5928318001097,643.6077644000761,643.7740405000513,643.9574436000548,643.9574436000548,644.1584321000846,space,1,0.18873900000471622,None,644.1624620000366,644.6733734000009,645.6726671000943,645.6565791000612,,,,,,,,,,000,001,2025-05-03_02h28.35.942,Cued GoNogo Task,2024.2.4,60.03871294935459,2025-05-03 02h28.48.383205 +0200,
block/CondBlock2.xlsx,You are about to start a block of type 2 trials.,42,42,0,Go,Go,0.24,0.2,0.05,space,green,vertical,space,147.2907552999677,None,space,1,0.15380269999150187,None,,,,0,1,1,1,0,42,42,42,645.6726671000943,,,,,,,,,,,,,,,,645.6568116000853,645.6726671000943,646.3721501000691,646.3721501000691,646.8716291000601,646.8558582999976,646.8565576000838,646.8716291000601,647.1215007000137,647.3045765000861,647.3045765000861,647.4726480001118,space,1,0.15380269999150187,None,647.4765027000103,647.9873836000916,648.9864150000503,648.9702365000267,,,,,,,,,,000,001,2025-05-03_02h28.35.942,Cued GoNogo Task,2024.2.4,60.03871294935459,2025-05-03 02h28.48.383205 +0200,
block/CondBlock2.xlsx,You are about to start a block of type 2 trials.,43,43,0,NoGo,NoGo,0.17,0.2,0.05,none,blue,vertical,space,147.2907552999677,None,None,1,,,,,,0,1,1,1,0,43,43,43,648.9864150000503,,,,,,,,,,,,,,,,648.9704671000363,648.9864150000503,649.6858393000439,649.6858393000439,650.185465500108,650.1692850000691,650.1696542000864,650.185465500108,650.3688427000307,650.5519155000802,650.5519155000802,651.035526300082,None,1,,,651.0382033000933,651.5511505000759,,652.550375000108,651.0513510000892,651.0513510000892,,,,,,,,000,001,2025-05-03_02h28.35.942,Cued GoNogo Task,2024.2.4,60.03871294935459,2025-05-03 02h28.48.383205 +0200,
