Block,blockMsg,thisN,thisTrialN,thisRepN,CueType,StimType,CueTime,Stim_Height,Stim_Width,CRESP,Color,Orientation,key_resp_2.keys,key_resp_2.rt,key_resp_2.duration,Key_Resp.keys,Key_Resp.corr,Key_Resp.rt,Key_Resp.duration,key_resp_3.keys,key_resp_3.rt,key_resp_3.duration,Blocks.thisRepN,Blocks.thisTrialN,Blocks.thisN,Blocks.thisIndex,Trials.thisRepN,Trials.thisTrialN,Trials.thisN,Trials.thisIndex,thisRow.t,notes,TaskIntro.started,fixation.started,key_resp.started,TaskIntro.stopped,key_resp.keys,key_resp.rt,key_resp.duration,BlockStart.started,BlockStart_Msg.started,key_resp_2.started,BlockStart.stopped,Blocks.key_resp_2.keys,Blocks.key_resp_2.rt,Blocks.key_resp_2.duration,Fixation.started,FixationPhase.started,Blank.started,FixationPhase.stopped,Blank.stopped,Fixation.stopped,Trial.started,Cue.started,Cue.stopped,GoNogo_Stim.started,Key_Resp.started,Trial.stopped,Trials.Key_Resp.keys,Trials.Key_Resp.corr,Trials.Key_Resp.rt,Trials.Key_Resp.duration,Feedback.started,Feedback_Present.started,Feedback_Present.stopped,Feedback.stopped,GoNogo_Stim.stopped,Key_Resp.stopped,BlockEnd.started,BlockEnd_Msg.started,key_resp_3.started,BlockEnd.stopped,Blocks.key_resp_3.keys,Blocks.key_resp_3.rt,Blocks.key_resp_3.duration,TaskEnd.started,ThankYou.started,key_resp_4.started,TaskEnd.stopped,key_resp_4.keys,key_resp_4.rt,key_resp_4.duration,participant,session,date,expName,psychopyVersion,frameRate,expStart,
,,,,,,,,,,,,,,,,,,,,,,,,,,,,,,,,,0.04005340009462088,0.1222277000779286,0.1222277000779286,38.45598750002682,space,38.32579439994879,None,,,,,,,,,,,,,,,,,,,,,,,,,,,,,,,,,,,,,,,,,,,,009,001,2025-04-30_22h40.46.475,Cued GoNogo Task,2024.2.4,60.05728263888077,2025-04-30 22h41.04.789034 +0200,
block/CondBlock1.xlsx,You are about to start a block of type 1 trials.,0,0,0,Go,Go,0.13,0.05,0.2,space,blue,horizontal,space,0.6337300000013784,None,space,1,0.2142442000331357,None,,,,0,0,0,0,0,0,0,0,39.18026779999491,,,,,,,,,38.46599769999739,38.46996700007003,38.46996700007003,39.11902540002484,space,0.6337300000013784,None,39.17729520006105,39.18026779999491,39.83392310002819,39.88377720001154,40.333480300032534,40.31777160009369,40.31855180009734,40.333480300032534,40.46676990005653,40.64984120009467,40.64984120009467,40.86755650001578,space,1,0.2142442000331357,None,40.877851200057194,41.38282300007995,42.38193100003991,42.36584220000077,,,,,,,,,,,,,,,,,009,001,2025-04-30_22h40.46.475,Cued GoNogo Task,2024.2.4,60.05728263888077,2025-04-30 22h41.04.789034 +0200,
block/CondBlock1.xlsx,You are about to start a block of type 1 trials.,1,1,0,NoGo,NoGo,0.43,0.05,0.2,none,blue,horizontal,space,0.6337300000013784,None,None,1,,,,,,0,0,0,0,0,1,1,1,42.38193100003991,,,,,,,,,,,,,,,,42.36610980005935,42.38193100003991,43.08134550007526,43.08134550007526,43.58071930008009,43.56491390010342,43.565528200007975,43.58071930008009,44.01398040005006,44.19709090003744,44.19709090003744,44.68030670005828,None,1,,,44.68287380004767,45.179546200088225,46.178627100074664,46.162737300037406,44.69643490004819,44.69643490004819,,,,,,,,,,,,,,,009,001,2025-04-30_22h40.46.475,Cued GoNogo Task,2024.2.4,60.05728263888077,2025-04-30 22h41.04.789034 +0200,
block/CondBlock1.xlsx,You are about to start a block of type 1 trials.,2,2,0,Go,Go,0.12,0.2,0.05,space,blue,vertical,space,0.6337300000013784,None,space,1,0.20219839992932975,None,,,,0,0,0,0,0,2,2,2,46.178627100074664,,,,,,,,,,,,,,,,46.16298890009057,46.19553000002634,46.89484870003071,46.89484870003071,47.39441000006627,47.37864200002514,47.3798289000988,47.39441000006627,47.52756900002714,47.71070120006334,47.71070120006334,47.928048200090416,space,1,0.20219839992932975,None,47.93209510005545,48.443504800088704,49.44271110009868,49.42674490006175,,,,,,,,,,,,,,,,,009,001,2025-04-30_22h40.46.475,Cued GoNogo Task,2024.2.4,60.05728263888077,2025-04-30 22h41.04.789034 +0200,
block/CondBlock1.xlsx,You are about to start a block of type 1 trials.,3,3,0,NoGo,NoGo,0.18,0.2,0.05,none,green,vertical,space,0.6337300000013784,None,None,1,,,,,,0,0,0,0,0,3,3,3,49.44271110009868,,,,,,,,,,,,,,,,49.42702210007701,49.44271110009868,50.142163400072604,50.142163400072604,50.64156620006543,50.626077600056306,50.62689000007231,50.64156620006543,50.82484720007051,51.00812010001391,51.00812010001391,51.49203010008205,None,1,,,51.49510070006363,52.0073424000293,53.00621860008687,52.990684000076726,51.50749099999666,51.50749099999666,,,,,,,,,,,,,,,009,001,2025-04-30_22h40.46.475,Cued GoNogo Task,2024.2.4,60.05728263888077,2025-04-30 22h41.04.789034 +0200,
block/CondBlock1.xlsx,You are about to start a block of type 1 trials.,4,4,0,Go,Go,0.24,0.05,0.2,space,green,horizontal,space,0.6337300000013784,None,space,1,0.1372815000358969,None,,,,0,0,0,0,0,4,4,4,53.00621860008687,,,,,,,,,,,,,,,,52.991128600086085,53.00621860008687,53.70590360008646,53.70590360008646,54.20547899999656,54.18977110006381,54.19059470004868,54.20547899999656,54.455135000054725,54.63814260007348,54.63814260007348,54.78952960006427,space,1,0.1372815000358969,None,54.794778200099245,55.304359600064345,56.30358820001129,56.287662900052965,,,,,,,,,,,,,,,,,009,001,2025-04-30_22h40.46.475,Cued GoNogo Task,2024.2.4,60.05728263888077,2025-04-30 22h41.04.789034 +0200,
block/CondBlock1.xlsx,You are about to start a block of type 1 trials.,5,5,0,Go,Go,0.21,0.05,0.2,space,blue,horizontal,space,0.6337300000013784,None,space,1,0.10597780009265989,None,,,,0,0,0,0,0,5,5,5,56.30358820001129,,,,,,,,,,,,,,,,56.28791810001712,56.30358820001129,57.00330050010234,57.00330050010234,57.502670900081284,57.4868831000058,57.487920400104485,57.502670900081284,57.71910030010622,57.90232780005317,57.90232780005317,58.020296700065956,space,1,0.10597780009265989,None,58.02510740002617,58.53514809999615,59.53438820003066,59.51851120009087,,,,,,,,,,,,,,,,,009,001,2025-04-30_22h40.46.475,Cued GoNogo Task,2024.2.4,60.05728263888077,2025-04-30 22h41.04.789034 +0200,
block/CondBlock1.xlsx,You are about to start a block of type 1 trials.,6,6,0,Go,Go,0.11,0.2,0.05,space,blue,vertical,space,0.6337300000013784,None,space,1,0.13456589996349066,None,,,,0,0,0,0,0,6,6,6,59.53438820003066,,,,,,,,,,,,,,,,59.51879810006358,59.53438820003066,60.23387039999943,60.23387039999943,60.73351980000734,60.717712400015444,60.71844300010707,60.73351980000734,60.850042700069025,61.03322040010244,61.03322040010244,61.18468679999933,space,1,0.13456589996349066,None,61.18918720004149,61.699262500042096,62.698490200098604,62.68241670005955,,,,,,,,,,,,,,,,,009,001,2025-04-30_22h40.46.475,Cued GoNogo Task,2024.2.4,60.05728263888077,2025-04-30 22h41.04.789034 +0200,
block/CondBlock1.xlsx,You are about to start a block of type 1 trials.,7,7,0,Go,Go,0.15,0.2,0.05,space,blue,vertical,space,0.6337300000013784,None,space,1,0.10513540008105338,None,,,,0,0,0,0,0,7,7,7,62.698490200098604,,,,,,,,,,,,,,,,62.6826282000402,62.698490200098604,63.39768720010761,63.39768720010761,63.897495300043374,63.88142250000965,63.88204779999796,63.897495300043374,64.04736369999591,64.24724620010238,64.24724620010238,64.36501180008054,space,1,0.10513540008105338,None,64.36960330000147,64.8800620000111,65.8791381000774,65.86318690003827,,,,,,,,,,,,,,,,,009,001,2025-04-30_22h40.46.475,Cued GoNogo Task,2024.2.4,60.05728263888077,2025-04-30 22h41.04.789034 +0200,
block/CondBlock1.xlsx,You are about to start a block of type 1 trials.,8,8,0,NoGo,NoGo,0.3,0.05,0.2,none,blue,horizontal,space,0.6337300000013784,None,None,1,,,,,,0,0,0,0,0,8,8,8,65.8791381000774,,,,,,,,,,,,,,,,65.86348000005819,65.8791381000774,66.57857330003753,66.57857330003753,67.0779561001109,67.06200220005121,67.0625149999978,67.0779561001109,67.37786590005271,67.57776570005808,67.57776570005808,68.06209630006924,None,1,,,68.06610610010102,68.57707520003896,69.5760032000253,69.56026290007867,68.07727400003932,68.07727400003932,,,,,,,,,,,,,,,009,001,2025-04-30_22h40.46.475,Cued GoNogo Task,2024.2.4,60.05728263888077,2025-04-30 22h41.04.789034 +0200,
block/CondBlock1.xlsx,You are about to start a block of type 1 trials.,9,9,0,NoGo,NoGo,0.17,0.05,0.2,none,blue,horizontal,space,0.6337300000013784,None,None,1,,,,,,0,0,0,0,0,9,9,9,69.5760032000253,,,,,,,,,,,,,,,,69.56058060005307,69.5760032000253,70.27540510008112,70.27540510008112,70.77511100005358,70.75932950002607,70.75997190002818,70.77511100005358,70.95824590011034,71.14152810000814,71.14152810000814,71.62542900000699,None,1,,,71.62604070000816,72.14068670000415,73.13977090001572,73.12388420000207,71.64093620004132,71.64093620004132,,,,,,,,,,,,,,,009,001,2025-04-30_22h40.46.475,Cued GoNogo Task,2024.2.4,60.05728263888077,2025-04-30 22h41.04.789034 +0200,
block/CondBlock1.xlsx,You are about to start a block of type 1 trials.,10,10,0,NoGo,NoGo,0.26,0.2,0.05,none,green,vertical,space,0.6337300000013784,None,None,1,,,,,,0,0,0,0,0,10,10,10,73.13977090001572,,,,,,,,,,,,,,,,73.12416240002494,73.13977090001572,73.83942450000905,73.83942450000905,74.33894130005501,74.3229166000383,74.32345720008016,74.33894130005501,74.60517400002573,74.78863460000139,74.78863460000139,75.27253630000632,None,1,,,75.27330460003577,75.78752950008493,76.78690180007834,76.7711711000884,75.28803220007103,75.28803220007103,,,,,,,,,,,,,,,009,001,2025-04-30_22h40.46.475,Cued GoNogo Task,2024.2.4,60.05728263888077,2025-04-30 22h41.04.789034 +0200,
block/CondBlock1.xlsx,You are about to start a block of type 1 trials.,11,11,0,Go,Go,0.27,0.05,0.2,space,green,horizontal,space,0.6337300000013784,None,space,1,0.13204259995836765,None,,,,0,0,0,0,0,11,11,11,76.78690180007834,,,,,,,,,,,,,,,,76.77159870008472,76.78690180007834,77.48631940002088,77.48631940002088,77.98610440001357,77.97007790009957,77.97089840006083,77.98610440001357,78.26899320003577,78.45208710001316,78.45208710001316,78.58703000005335,space,1,0.13204259995836765,None,78.59107260010205,79.1015351000242,80.10075880005024,80.0849655000493,,,,,,,,,,,,,,,,,009,001,2025-04-30_22h40.46.475,Cued GoNogo Task,2024.2.4,60.05728263888077,2025-04-30 22h41.04.789034 +0200,
block/CondBlock1.xlsx,You are about to start a block of type 1 trials.,12,12,0,Go,Go,0.16,0.2,0.05,space,green,vertical,space,0.6337300000013784,None,space,1,0.20650720002595335,None,,,,0,0,0,0,0,12,12,12,80.10075880005024,,,,,,,,,,,,,,,,80.08526220009662,80.10075880005024,80.80025840003509,80.80025840003509,81.29979780002031,81.28366850002203,81.28403550002258,81.29979780002031,81.4663687000284,81.64964479999617,81.64964479999617,81.86672280007042,space,1,0.20650720002595335,None,81.87088390009012,82.38242240005638,83.38154820003547,83.36572670005262,,,,,,,,,,,,,,,,,009,001,2025-04-30_22h40.46.475,Cued GoNogo Task,2024.2.4,60.05728263888077,2025-04-30 22h41.04.789034 +0200,
block/CondBlock1.xlsx,You are about to start a block of type 1 trials.,13,13,0,Go,Go,0.13,0.2,0.05,space,green,vertical,space,0.6337300000013784,None,space,1,0.17585649993270636,None,,,,0,0,0,0,0,13,13,13,83.38154820003547,,,,,,,,,,,,,,,,83.36601790005807,83.38154820003547,84.08078280009795,84.08078280009795,84.58057920006104,84.56451730011031,84.56513790006284,84.58057920006104,84.71365160006098,84.89690230006818,84.89690230006818,85.08148630009964,space,1,0.17585649993270636,None,85.08545270003378,85.59636190009769,86.59528870007489,86.57958150003105,,,,,,,,,,,,,,,,,009,001,2025-04-30_22h40.46.475,Cued GoNogo Task,2024.2.4,60.05728263888077,2025-04-30 22h41.04.789034 +0200,
block/CondBlock1.xlsx,You are about to start a block of type 1 trials.,14,14,0,Go,Go,0.12,0.05,0.2,space,blue,horizontal,space,0.6337300000013784,None,space,1,0.12133710004854947,None,,,,0,0,0,0,0,14,14,14,86.59528870007489,,,,,,,,,,,,,,,,86.57983130007051,86.59528870007489,87.29488290008157,87.29488290008157,87.79446190001909,87.77841650007758,87.77900810004212,87.79446190001909,87.92776680004317,88.11077280004974,88.11077280004974,88.24506109999493,space,1,0.12133710004854947,None,88.24859930004459,88.76038330001757,89.75962210004218,89.74368610000238,,,,,,,,,,,,,,,,,009,001,2025-04-30_22h40.46.475,Cued GoNogo Task,2024.2.4,60.05728263888077,2025-04-30 22h41.04.789034 +0200,
block/CondBlock1.xlsx,You are about to start a block of type 1 trials.,15,15,0,Go,Go,0.45,0.2,0.05,space,blue,vertical,space,0.6337300000013784,None,space,1,0.08740459999535233,None,,,,0,0,0,0,0,15,15,15,89.75962210004218,,,,,,,,,,,,,,,,89.74397820001468,89.75962210004218,90.45898200001102,90.45898200001102,90.95858790003695,90.94269420008641,90.94347560009919,90.95858790003695,91.4081074000569,91.60789280000608,91.60789280000608,91.70907219999935,space,1,0.08740459999535233,None,91.71489490009844,92.2242332000751,93.2234019000316,93.20726720010862,,,,,,,,,,,,,,,,,009,001,2025-04-30_22h40.46.475,Cued GoNogo Task,2024.2.4,60.05728263888077,2025-04-30 22h41.04.789034 +0200,
block/CondBlock1.xlsx,You are about to start a block of type 1 trials.,16,16,0,NoGo,NoGo,0.14,0.2,0.05,none,green,vertical,space,0.6337300000013784,None,None,1,,,,,,0,0,0,0,0,16,16,16,93.2234019000316,,,,,,,,,,,,,,,,93.20750700007193,93.2234019000316,93.92271060007624,93.92271060007624,94.42240460007451,94.40660660003778,94.40758560004178,94.42240460007451,94.57220310007688,94.75542780000251,94.75542780000251,95.2389400000684,None,1,,,95.24113540002145,95.73789950006176,96.73723770002834,96.72117680008523,95.25486470002215,95.25486470002215,,,,,,,,,,,,,,,009,001,2025-04-30_22h40.46.475,Cued GoNogo Task,2024.2.4,60.05728263888077,2025-04-30 22h41.04.789034 +0200,
block/CondBlock1.xlsx,You are about to start a block of type 1 trials.,17,17,0,Go,Go,0.12,0.05,0.2,space,green,horizontal,space,0.6337300000013784,None,space,1,0.20346210000570863,None,,,,0,0,0,0,0,17,17,17,96.73723770002834,,,,,,,,,,,,,,,,96.72143700008746,96.75398870010395,97.45314120000694,97.45314120000694,97.95286120008677,97.93667510000523,97.93722090008669,97.95286120008677,98.08596260007471,98.26911590003874,98.26911590003874,98.48710440006107,space,1,0.20346210000570863,None,98.4918279000558,99.00187960010953,100.00118200003635,99.9851194000803,,,,,,,,,,,,,,,,,009,001,2025-04-30_22h40.46.475,Cued GoNogo Task,2024.2.4,60.05728263888077,2025-04-30 22h41.04.789034 +0200,
block/CondBlock1.xlsx,You are about to start a block of type 1 trials.,18,18,0,Go,Go,0.47,0.2,0.05,space,blue,vertical,space,0.6337300000013784,None,space,1,0.18350019992794842,None,,,,0,0,0,0,0,18,18,18,100.00118200003635,,,,,,,,,,,,,,,,99.98539680009708,100.00118200003635,100.70035300008021,100.70035300008021,101.20018490008079,101.1841301000677,101.18479379999917,101.20018490008079,101.68294349999633,101.86603440006729,101.86603440006729,102.05187350010965,space,1,0.18350019992794842,None,102.05565090000164,102.56553250004072,103.56467790005263,103.54887530009728,,,,,,,,,,,,,,,,,009,001,2025-04-30_22h40.46.475,Cued GoNogo Task,2024.2.4,60.05728263888077,2025-04-30 22h41.04.789034 +0200,
block/CondBlock1.xlsx,You are about to start a block of type 1 trials.,19,19,0,Go,Go,0.18,0.2,0.05,space,green,vertical,space,0.6337300000013784,None,space,1,0.15714190003927797,None,,,,0,0,0,0,0,19,19,19,103.56467790005263,,,,,,,,,,,,,,,,103.5491213001078,103.56467790005263,104.26417630002834,104.26417630002834,104.76385840005241,104.74801970005501,104.74880540010054,104.76385840005241,104.94721950008534,105.14692670002114,105.14692670002114,105.31428849999793,space,1,0.15714190003927797,None,105.31672980007716,105.82969640009105,106.82889720005915,106.81313720007893,,,,,,,,,,,,,,,,,009,001,2025-04-30_22h40.46.475,Cued GoNogo Task,2024.2.4,60.05728263888077,2025-04-30 22h41.04.789034 +0200,
block/CondBlock1.xlsx,You are about to start a block of type 1 trials.,20,20,0,Go,Go,0.19,0.2,0.05,space,blue,vertical,space,0.6337300000013784,None,space,1,0.24514380004256964,None,,,,0,0,0,0,0,20,20,20,106.82889720005915,,,,,,,,,,,,,,,,106.81345650006551,106.82889720005915,107.52821830008179,107.52821830008179,108.02777750010137,108.01211360003799,108.01289860007819,108.02777750010137,108.22778900002595,108.41073250002228,108.41073250002228,108.66172400000505,space,1,0.24514380004256964,None,108.66472530004103,109.1769440000644,110.17591410002206,110.16008340008557,,,,,,,,,,,,,,,,,009,001,2025-04-30_22h40.46.475,Cued GoNogo Task,2024.2.4,60.05728263888077,2025-04-30 22h41.04.789034 +0200,
block/CondBlock1.xlsx,You are about to start a block of type 1 trials.,21,21,0,Go,Go,0.14,0.2,0.05,space,blue,vertical,space,0.6337300000013784,None,space,1,0.16422100004274398,None,,,,0,0,0,0,0,21,21,21,110.17591410002206,,,,,,,,,,,,,,,,110.16040819999762,110.17591410002206,110.87558130000252,110.87558130000252,111.37506850005593,111.3592506001005,111.35996580007486,111.37506850005593,111.52481960004661,111.70806840003934,111.70806840003934,111.87605650001206,space,1,0.16422100004274398,None,111.88105490000453,112.3907215000363,113.38996150007006,113.3742140000686,,,,,,,,,,,,,,,,,009,001,2025-04-30_22h40.46.475,Cued GoNogo Task,2024.2.4,60.05728263888077,2025-04-30 22h41.04.789034 +0200,
block/CondBlock1.xlsx,You are about to start a block of type 1 trials.,22,22,0,Go,Go,0.15,0.2,0.05,space,blue,vertical,space,0.6337300000013784,None,space,1,0.1648020000429824,None,,,,0,0,0,0,0,22,22,22,113.38996150007006,,,,,,,,,,,,,,,,113.37463050009683,113.38996150007006,114.08961450005881,114.08961450005881,114.589201600058,114.57299580005929,114.57360590004828,114.589201600058,114.73892840009648,114.93882620008662,114.93882620008662,115.10624180000741,space,1,0.1648020000429824,None,115.10655660007615,115.6216702000238,116.62076550000347,116.60489360010251,,,,,,,,,,,,,,,,,009,001,2025-04-30_22h40.46.475,Cued GoNogo Task,2024.2.4,60.05728263888077,2025-04-30 22h41.04.789034 +0200,
block/CondBlock1.xlsx,You are about to start a block of type 1 trials.,23,23,0,Go,Go,0.23,0.05,0.2,space,green,horizontal,space,0.6337300000013784,None,space,1,0.17140719993039966,None,,,,0,0,0,0,0,23,23,23,116.62076550000347,,,,,,,,,,,,,,,,116.60512280010153,116.62076550000347,117.32013250002638,117.32013250002638,117.8196574000176,117.80371920007747,117.80424220010173,117.8196574000176,118.05284950009082,118.23610690003261,118.23610690003261,118.42078860010952,space,1,0.17140719993039966,None,118.42456950002816,118.93534710002132,119.93473330000415,119.9186381000327,,,,,,,,,,,,,,,,,009,001,2025-04-30_22h40.46.475,Cued GoNogo Task,2024.2.4,60.05728263888077,2025-04-30 22h41.04.789034 +0200,
block/CondBlock1.xlsx,You are about to start a block of type 1 trials.,24,24,0,Go,Go,0.2,0.2,0.05,space,blue,vertical,space,0.6337300000013784,None,space,1,0.1230770000256598,None,,,,0,0,0,0,0,24,24,24,119.93473330000415,,,,,,,,,,,,,,,,119.91887910000514,119.93473330000415,120.63428320002276,120.63428320002276,121.13385860004928,121.1183329001069,121.11905110010412,121.13385860004928,121.33354330004659,121.53339280001819,121.53339280001819,121.66770400002133,space,1,0.1230770000256598,None,121.67114290001336,122.18335060006939,123.18211500009056,123.16679340007249,,,,,,,,,,,,,,,,,009,001,2025-04-30_22h40.46.475,Cued GoNogo Task,2024.2.4,60.05728263888077,2025-04-30 22h41.04.789034 +0200,
block/CondBlock1.xlsx,You are about to start a block of type 1 trials.,25,25,0,Go,Go,0.15,0.2,0.05,space,blue,vertical,space,0.6337300000013784,None,space,1,0.14101270004175603,None,,,,0,0,0,0,0,25,25,25,123.18211500009056,,,,,,,,,,,,,,,,123.16706870007329,123.18211500009056,123.88149860000703,123.88149860000703,124.38116000010632,124.36501100007445,124.3657089000335,124.38116000010632,124.53098100004718,124.7308424001094,124.7308424001094,124.88190940010827,space,1,0.14101270004175603,None,124.88606220006477,125.39692280010786,126.39601930009667,126.3799867000198,,,,,,,,,,,,,,,,,009,001,2025-04-30_22h40.46.475,Cued GoNogo Task,2024.2.4,60.05728263888077,2025-04-30 22h41.04.789034 +0200,
block/CondBlock1.xlsx,You are about to start a block of type 1 trials.,26,26,0,NoGo,NoGo,0.2,0.2,0.05,none,blue,vertical,space,0.6337300000013784,None,None,1,,,,,,0,0,0,0,0,26,26,26,126.39601930009667,,,,,,,,,,,,,,,,126.3802558000898,126.39601930009667,127.09552070009522,127.09552070009522,127.5950056000147,127.57905010005925,127.57968020008411,127.5950056000147,127.794888000004,127.99491670005955,127.99491670005955,128.47849640005734,None,1,,,128.48130330001004,128.9937347000232,129.99301400000695,129.97713310003746,128.49427770008333,128.49427770008333,,,,,,,,,,,,,,,009,001,2025-04-30_22h40.46.475,Cued GoNogo Task,2024.2.4,60.05728263888077,2025-04-30 22h41.04.789034 +0200,
block/CondBlock1.xlsx,You are about to start a block of type 1 trials.,27,27,0,Go,Go,0.29,0.05,0.2,space,green,horizontal,space,0.6337300000013784,None,space,1,0.19750250002834946,None,,,,0,0,0,0,0,27,27,27,129.99301400000695,,,,,,,,,,,,,,,,129.97739160002675,129.99301400000695,130.69253620004747,130.69253620004747,131.1922577000223,131.1761858999962,131.17693220009096,131.1922577000223,131.49179080000613,131.6750421000179,131.6750421000179,131.87572960008401,space,1,0.19750250002834946,None,131.8801849000156,132.39111130009405,133.3903751000762,133.37420610000845,,,,,,,,,,,,,,,,,009,001,2025-04-30_22h40.46.475,Cued GoNogo Task,2024.2.4,60.05728263888077,2025-04-30 22h41.04.789034 +0200,
block/CondBlock1.xlsx,You are about to start a block of type 1 trials.,28,28,0,Go,Go,0.24,0.2,0.05,space,blue,vertical,space,0.6337300000013784,None,space,1,0.18495649995747954,None,,,,0,0,0,0,0,28,28,28,133.3903751000762,,,,,,,,,,,,,,,,133.37445090000983,133.3903751000762,134.08990440005437,134.08990440005437,134.589216100052,134.57355790003203,134.5743502000114,134.589216100052,134.8393478000071,135.0223193001002,135.0223193001002,135.22338790004142,space,1,0.18495649995747954,None,135.22722810006235,135.7385607000906,,136.73776030004956,,,,,,,,,,,,,,,,,009,001,2025-04-30_22h40.46.475,Cued GoNogo Task,2024.2.4,60.05728263888077,2025-04-30 22h41.04.789034 +0200,
block/CondBlock1.xlsx,You are about to start a block of type 1 trials.,29,29,0,Go,Go,0.15,0.05,0.2,space,green,horizontal,space,0.6337300000013784,None,space,1,0.14608269999735057,None,,,,0,0,0,0,0,29,29,29,136.75425430003088,,,,,,,,,,,,,,,,136.73819659999572,136.75425430003088,137.43699760001618,137.4536947000306,137.93653170007747,137.92037900001742,137.92099760007113,137.93653170007747,138.08617560006678,138.28611190000083,138.28611190000083,138.43730890005827,space,1,0.14608269999735057,None,138.4426422000397,138.95228760002647,139.9514469000278,139.93587310006842,,,,,,,,,,,,,,,,,009,001,2025-04-30_22h40.46.475,Cued GoNogo Task,2024.2.4,60.05728263888077,2025-04-30 22h41.04.789034 +0200,
block/CondBlock1.xlsx,You are about to start a block of type 1 trials.,30,30,0,Go,Go,0.23,0.2,0.05,space,green,vertical,space,0.6337300000013784,None,space,1,0.16218550002668053,None,,,,0,0,0,0,0,30,30,30,139.9514469000278,,,,,,,,,,,,,,,,139.9361764000496,139.9514469000278,140.65115940000396,140.65115940000396,141.15053100010846,141.13478850002866,141.13552850007545,141.15053100010846,141.38373690005392,141.56677360006142,141.56677360006142,141.73467830009758,space,1,0.16218550002668053,None,141.7387700000545,142.24979060003534,143.2486259000143,143.23278810002375,,,,,,,,,,,,,,,,,009,001,2025-04-30_22h40.46.475,Cued GoNogo Task,2024.2.4,60.05728263888077,2025-04-30 22h41.04.789034 +0200,
block/CondBlock1.xlsx,You are about to start a block of type 1 trials.,31,31,0,Go,Go,0.28,0.2,0.05,space,green,vertical,space,0.6337300000013784,None,space,1,0.10210639995057136,None,,,,0,0,0,0,0,31,31,31,143.2486259000143,,,,,,,,,,,,,,,,143.23308170004748,143.2486259000143,143.94832300010603,143.94832300010603,144.44791510002688,144.43226020003203,144.43292890000157,144.44791510002688,144.731094900053,144.914064600016,144.914064600016,145.03193430008832,space,1,0.10210639995057136,None,145.03597040008754,145.54693320009392,146.54603590001352,146.53001420001965,,,,,,,,,,,,,,,,,009,001,2025-04-30_22h40.46.475,Cued GoNogo Task,2024.2.4,60.05728263888077,2025-04-30 22h41.04.789034 +0200,
block/CondBlock1.xlsx,You are about to start a block of type 1 trials.,32,32,0,Go,Go,0.19,0.2,0.05,space,green,vertical,space,0.6337300000013784,None,space,1,0.09712689998559654,None,,,,0,0,0,0,0,32,32,32,146.54603590001352,,,,,,,,,,,,,,,,146.5302459000377,146.54603590001352,147.245724300039,147.245724300039,147.74517940008081,147.72915100003593,147.7298639001092,147.74517940008081,147.94497790001333,148.1280367000727,148.1280367000727,148.22929200006183,space,1,0.09712689998559654,None,148.2329352000961,148.74430970009416,149.74355660006404,149.72800020000432,,,,,,,,,,,,,,,,,009,001,2025-04-30_22h40.46.475,Cued GoNogo Task,2024.2.4,60.05728263888077,2025-04-30 22h41.04.789034 +0200,
block/CondBlock1.xlsx,You are about to start a block of type 1 trials.,33,33,0,Go,Go,0.12,0.2,0.05,space,green,vertical,space,0.6337300000013784,None,space,1,0.14160370000172406,None,,,,0,0,0,0,0,33,33,33,149.74355660006404,,,,,,,,,,,,,,,,149.7283689000178,149.74355660006404,150.4428714000387,150.4428714000387,150.94238730007783,150.92704610002693,150.9278746000491,150.94238730007783,151.0757784000598,151.25894800003152,151.25894800003152,151.40968160005286,space,1,0.14160370000172406,None,151.4131699000718,151.9251135000959,152.92425850010477,152.90815980010666,,,,,,,,,,,,,,,,,009,001,2025-04-30_22h40.46.475,Cued GoNogo Task,2024.2.4,60.05728263888077,2025-04-30 22h41.04.789034 +0200,
block/CondBlock1.xlsx,You are about to start a block of type 1 trials.,34,34,0,Go,Go,0.18,0.2,0.05,space,blue,vertical,space,0.6337300000013784,None,space,1,0.14363669999875128,None,,,,0,0,0,0,0,34,34,34,152.92425850010477,,,,,,,,,,,,,,,,152.90836500003934,152.92425850010477,153.62356570002157,153.62356570002157,154.1231074000243,154.10771860007662,154.1084638000466,154.1231074000243,154.3064937000163,154.48959980008658,154.48959980008658,154.64056329999585,space,1,0.14363669999875128,None,154.6437375000678,155.1559088000795,,156.15517260006163,,,,,,,,,,,,,,,,,009,001,2025-04-30_22h40.46.475,Cued GoNogo Task,2024.2.4,60.05728263888077,2025-04-30 22h41.04.789034 +0200,
block/CondBlock1.xlsx,You are about to start a block of type 1 trials.,35,35,0,Go,Go,0.21,0.2,0.05,space,blue,vertical,space,0.6337300000013784,None,space,1,0.11049019999336451,None,,,,0,0,0,0,0,35,35,35,156.17157270002645,,,,,,,,,,,,,,,,156.1553877000697,156.17157270002645,156.85451030009426,156.87094460008666,157.35388670000248,157.33818270009942,157.3389279000694,157.35388670000248,157.5705053000711,157.7536452000495,157.7536452000495,157.87134470010642,space,1,0.11049019999336451,None,157.87607340002432,158.38633450004272,159.3855056000175,159.3698648000136,,,,,,,,,,,,,,,,,009,001,2025-04-30_22h40.46.475,Cued GoNogo Task,2024.2.4,60.05728263888077,2025-04-30 22h41.04.789034 +0200,
block/CondBlock1.xlsx,You are about to start a block of type 1 trials.,36,36,0,Go,Go,0.2,0.2,0.05,space,green,vertical,space,0.6337300000013784,None,space,1,0.1045530999545008,None,,,,0,0,0,0,0,36,36,36,159.3855056000175,,,,,,,,,,,,,,,,159.37018090009224,159.3855056000175,160.08498390007298,160.08498390007298,160.5847652000375,160.56913410010748,160.56981980009004,160.5847652000375,160.78442440007348,160.98446780000813,160.98446780000813,161.10231260000728,space,1,0.1045530999545008,None,161.10608670010697,161.61715950001962,162.61619520001113,162.60024770000018,,,,,,,,,,,,,,,,,009,001,2025-04-30_22h40.46.475,Cued GoNogo Task,2024.2.4,60.05728263888077,2025-04-30 22h41.04.789034 +0200,
block/CondBlock1.xlsx,You are about to start a block of type 1 trials.,37,37,0,Go,Go,0.45,0.05,0.2,space,blue,horizontal,space,0.6337300000013784,None,space,1,0.11144489992875606,None,,,,0,0,0,0,0,37,37,37,162.61619520001113,,,,,,,,,,,,,,,,162.60051920008846,162.61619520001113,163.31564550008625,163.31564550008625,163.81526110006962,163.79928620008286,163.79997530009132,163.81526110006962,164.26511910010595,164.46475750009995,164.46475750009995,164.582284300006,space,1,0.11144489992875606,None,164.58603000000585,165.09755679999944,166.09676139999647,166.08077190001495,,,,,,,,,,,,,,,,,009,001,2025-04-30_22h40.46.475,Cued GoNogo Task,2024.2.4,60.05728263888077,2025-04-30 22h41.04.789034 +0200,
block/CondBlock1.xlsx,You are about to start a block of type 1 trials.,38,38,0,Go,Go,0.13,0.05,0.2,space,blue,horizontal,space,0.6337300000013784,None,space,1,0.18075850000604987,None,,,,0,0,0,0,0,38,38,38,166.09676139999647,,,,,,,,,,,,,,,,166.0810287001077,166.09676139999647,166.79614530003164,166.79614530003164,167.29560970002785,167.2799952001078,167.28069800010417,167.29560970002785,167.428948600078,167.61221570009366,167.61221570009366,167.79652890004218,space,1,0.18075850000604987,None,167.80078370007686,168.31154310004786,169.31081870000344,169.2947884000605,,,,,,,,,,,,,,,,,009,001,2025-04-30_22h40.46.475,Cued GoNogo Task,2024.2.4,60.05728263888077,2025-04-30 22h41.04.789034 +0200,
block/CondBlock1.xlsx,You are about to start a block of type 1 trials.,39,39,0,Go,Go,0.46,0.2,0.05,space,blue,vertical,space,0.6337300000013784,None,space,1,0.13671380002051592,None,,,,0,0,0,0,0,39,39,39,169.31081870000344,,,,,,,,,,,,,,,,169.29509410005994,169.31081870000344,170.01011480006855,170.01011480006855,170.5096720000729,170.4935735000763,170.49412390007637,170.5096720000729,170.9762145000277,171.1592468000017,171.1592468000017,171.3103844000725,space,1,0.13671380002051592,None,171.3147766001057,171.82544550008606,172.82463899999857,172.80871940008365,,,,,,,,,,,,,,,,,009,001,2025-04-30_22h40.46.475,Cued GoNogo Task,2024.2.4,60.05728263888077,2025-04-30 22h41.04.789034 +0200,
block/CondBlock1.xlsx,You are about to start a block of type 1 trials.,40,40,0,Go,Go,0.29,0.2,0.05,space,blue,vertical,space,0.6337300000013784,None,space,1,0.13404440006706864,None,,,,0,0,0,0,0,40,40,40,172.82463899999857,,,,,,,,,,,,,,,,172.80902030004654,172.82463899999857,173.52408840006683,173.52408840006683,174.02341330004856,174.00772930006497,174.00845730002038,174.02341330004856,174.32328020001296,174.50649060006253,174.50649060006253,174.64367990009487,space,1,0.13404440006706864,None,174.64759960002266,175.1560040001059,176.1550974000711,176.13908810005523,,,,,,,,,,,,,,,,,009,001,2025-04-30_22h40.46.475,Cued GoNogo Task,2024.2.4,60.05728263888077,2025-04-30 22h41.04.789034 +0200,
block/CondBlock1.xlsx,You are about to start a block of type 1 trials.,41,41,0,Go,Go,0.22,0.2,0.05,space,blue,vertical,space,0.6337300000013784,None,space,1,0.14284400001633912,None,,,,0,0,0,0,0,41,41,41,176.1550974000711,,,,,,,,,,,,,,,,176.13937160000205,176.1550974000711,176.8548051000107,176.8548051000107,177.35405680001713,177.33826119999867,177.33882380009163,177.35405680001713,177.58724620006979,177.77045870001893,177.77045870001893,177.92125340003986,space,1,0.14284400001633912,None,177.9241474000737,178.43659850000404,179.43574310000986,179.4201299000997,,,,,,,,,,,,,,,,,009,001,2025-04-30_22h40.46.475,Cued GoNogo Task,2024.2.4,60.05728263888077,2025-04-30 22h41.04.789034 +0200,
block/CondBlock1.xlsx,You are about to start a block of type 1 trials.,42,42,0,Go,Go,0.49,0.2,0.05,space,blue,vertical,space,0.6337300000013784,None,space,1,0.09053649997804314,None,,,,0,0,0,0,0,42,42,42,179.43574310000986,,,,,,,,,,,,,,,,179.42040990001988,179.43574310000986,180.13508840010036,180.13508840010036,180.6346549000591,180.61887350003235,180.619479300105,180.6346549000591,181.13421410007868,181.3174083000049,181.3174083000049,181.4186839000322,space,1,0.09053649997804314,None,181.42263600009028,181.93381800001953,182.93283710000105,182.91690520010889,,,,,,,,,,,,,,,,,009,001,2025-04-30_22h40.46.475,Cued GoNogo Task,2024.2.4,60.05728263888077,2025-04-30 22h41.04.789034 +0200,
block/CondBlock1.xlsx,You are about to start a block of type 1 trials.,43,43,0,Go,Go,0.2,0.2,0.05,space,blue,vertical,space,0.6337300000013784,None,space,1,0.1484877000330016,None,,,,0,0,0,0,0,43,43,43,182.93283710000105,,,,,,,,,,,,,,,,182.9171194001101,182.93283710000105,183.63221840001643,183.63221840001643,184.13187680009287,184.11593920004088,184.11658530007116,184.13187680009287,184.33159180008806,184.5315399999963,184.5315399999963,184.6822792000603,space,1,0.1484877000330016,None,184.68522490002215,185.1976907000644,186.1968362000771,186.18082990008406,,,,,,,,,,,,,,,,,009,001,2025-04-30_22h40.46.475,Cued GoNogo Task,2024.2.4,60.05728263888077,2025-04-30 22h41.04.789034 +0200,
block/CondBlock1.xlsx,You are about to start a block of type 1 trials.,44,44,0,Go,Go,0.3,0.05,0.2,space,blue,horizontal,space,0.6337300000013784,None,space,1,0.11329160002060235,None,,,,0,0,0,0,0,44,44,44,186.1968362000771,,,,,,,,,,,,,,,,186.18109770002775,186.1968362000771,186.89626900001895,186.89626900001895,187.39590390003286,187.37989810004365,187.3805849000346,187.39590390003286,187.69559670006856,187.89556650002487,187.89556650002487,188.01334290008526,space,1,0.11329160002060235,None,188.01729760004673,188.52829780010507,189.5274209000636,189.51133730006404,,,,,,,,,,,,,,,,,009,001,2025-04-30_22h40.46.475,Cued GoNogo Task,2024.2.4,60.05728263888077,2025-04-30 22h41.04.789034 +0200,
block/CondBlock1.xlsx,You are about to start a block of type 1 trials.,45,45,0,NoGo,NoGo,0.21,0.05,0.2,none,green,horizontal,space,0.6337300000013784,None,None,1,,,,,,0,0,0,0,0,45,45,45,189.5274209000636,,,,,,,,,,,,,,,,189.51158170006238,189.5274209000636,190.2268932000734,190.2268932000734,190.72631779999938,190.71087380009703,190.71183490008116,190.72631779999938,190.94297460000962,191.1260401000036,191.1260401000036,191.6102102000732,None,1,,,191.61370159999933,192.12532120000105,193.12437299999874,193.1085303000873,191.625579600106,191.625579600106,,,,,,,,,,,,,,,009,001,2025-04-30_22h40.46.475,Cued GoNogo Task,2024.2.4,60.05728263888077,2025-04-30 22h41.04.789034 +0200,
block/CondBlock1.xlsx,You are about to start a block of type 1 trials.,46,46,0,NoGo,NoGo,0.45,0.05,0.2,none,blue,horizontal,space,0.6337300000013784,None,None,1,,,,,,0,0,0,0,0,46,46,46,193.12437299999874,,,,,,,,,,,,,,,,193.10886800009757,193.12437299999874,193.82385120005347,193.82385120005347,194.32341740000993,194.3075045000296,194.30807180004194,194.32341740000993,194.77319860004354,194.97295090008993,194.97295090008993,195.4565617000917,None,1,,,195.45702359999996,195.97222360002343,196.97116180008743,196.955593300052,195.47245090000797,195.47245090000797,,,,,,,,,,,,,,,009,001,2025-04-30_22h40.46.475,Cued GoNogo Task,2024.2.4,60.05728263888077,2025-04-30 22h41.04.789034 +0200,
block/CondBlock1.xlsx,You are about to start a block of type 1 trials.,47,47,0,Go,Go,0.24,0.05,0.2,space,green,horizontal,space,0.6337300000013784,None,space,1,0.15758679993450642,None,,,,0,0,0,0,0,47,47,47,196.97116180008743,,,,,,,,,,,,,,,,196.95588760008104,196.97116180008743,197.6706380000105,197.6706380000105,198.17039910005406,198.1547334000934,198.15544730005786,198.17039910005406,198.42007760005072,198.6031798000913,198.6031798000913,198.77080170006957,space,1,0.15758679993450642,None,198.77386610000394,199.28614450001623,200.2852432000218,200.26924090005923,,,,,,,,,,,,,,,,,009,001,2025-04-30_22h40.46.475,Cued GoNogo Task,2024.2.4,60.05728263888077,2025-04-30 22h41.04.789034 +0200,
block/CondBlock1.xlsx,You are about to start a block of type 1 trials.,48,48,0,NoGo,NoGo,0.15,0.2,0.05,none,blue,vertical,space,0.6337300000013784,None,None,1,,,,,,0,0,0,0,0,48,48,48,200.2852432000218,,,,,,,,,,,,,,,,200.26947709999513,200.2852432000218,200.98462510004174,200.98462510004174,201.48428830003832,201.46828620007727,201.4688657000661,201.48428830003832,201.63429900002666,201.83414190006442,201.83414190006442,202.3174497000873,None,1,,,202.32012140005827,202.81660460005514,203.81557170010637,203.80022440000903,202.33352240000386,202.33352240000386,,,,,,,,,,,,,,,009,001,2025-04-30_22h40.46.475,Cued GoNogo Task,2024.2.4,60.05728263888077,2025-04-30 22h41.04.789034 +0200,
block/CondBlock1.xlsx,You are about to start a block of type 1 trials.,49,49,0,Go,Go,0.12,0.05,0.2,space,blue,horizontal,space,0.6337300000013784,None,space,1,0.1404268000042066,None,,,,0,0,0,0,0,49,49,49,203.81557170010637,,,,,,,,,,,,,,,,203.80047330004163,203.83240620000288,204.53180350002367,204.53180350002367,205.03135460009798,205.01596200000495,205.01666260010097,205.03135460009798,205.16460990009364,205.3477155000437,205.3477155000437,205.49889200006146,space,1,0.1404268000042066,None,205.50332600006368,206.01378840010148,207.01312900008634,206.99760040000547,,,,,,,,,,,,,,,,,009,001,2025-04-30_22h40.46.475,Cued GoNogo Task,2024.2.4,60.05728263888077,2025-04-30 22h41.04.789034 +0200,
block/CondBlock1.xlsx,You are about to start a block of type 1 trials.,50,50,0,Go,Go,0.22,0.2,0.05,space,green,vertical,space,0.6337300000013784,None,space,1,0.155831899959594,None,,,,0,0,0,0,0,50,50,50,207.01312900008634,,,,,,,,,,,,,,,,206.99793520011008,207.01312900008634,207.71231180010363,207.71231180010363,208.2120086000068,208.19601100008003,208.19653880002443,208.2120086000068,208.4451578001026,208.6283786999993,208.6283786999993,208.79620770004112,space,1,0.155831899959594,None,208.80011559999548,209.31111550005153,210.3102518999949,210.2941729000304,,,,,,,,,,,,,,,,,009,001,2025-04-30_22h40.46.475,Cued GoNogo Task,2024.2.4,60.05728263888077,2025-04-30 22h41.04.789034 +0200,
block/CondBlock1.xlsx,You are about to start a block of type 1 trials.,51,51,0,Go,Go,0.28,0.05,0.2,space,green,horizontal,space,0.6337300000013784,None,space,1,0.17594570002984256,None,,,,0,0,0,0,0,51,51,51,210.3102518999949,,,,,,,,,,,,,,,,210.2944153000135,210.3102518999949,211.00981290009804,211.00981290009804,211.50926560000516,211.49372780008707,211.49455380009022,211.50926560000516,211.79252280003857,211.97566820005886,211.97566820005886,212.15971870010253,space,1,0.17594570002984256,None,212.16288420010824,212.67509320005774,213.67432350001764,213.65886640001554,,,,,,,,,,,,,,,,,009,001,2025-04-30_22h40.46.475,Cued GoNogo Task,2024.2.4,60.05728263888077,2025-04-30 22h41.04.789034 +0200,
block/CondBlock1.xlsx,You are about to start a block of type 1 trials.,52,52,0,Go,Go,0.23,0.2,0.05,space,green,vertical,space,0.6337300000013784,None,space,1,0.1585405000951141,None,,,,0,0,0,0,0,52,52,52,213.67432350001764,,,,,,,,,,,,,,,,213.659169999999,213.67432350001764,214.3739488000283,214.3739488000283,214.87319420010317,214.85769400000572,214.8585215000203,214.87319420010317,215.10642820002977,215.28958820004482,215.28958820004482,215.45717510010581,space,1,0.1585405000951141,None,215.46157670009416,215.97220100008417,216.97162840003148,216.95561830000952,,,,,,,,,,,,,,,,,009,001,2025-04-30_22h40.46.475,Cued GoNogo Task,2024.2.4,60.05728263888077,2025-04-30 22h41.04.789034 +0200,
block/CondBlock1.xlsx,You are about to start a block of type 1 trials.,53,53,0,Go,Go,0.22,0.05,0.2,space,green,horizontal,space,0.6337300000013784,None,space,1,0.20461910008452833,None,,,,0,0,0,0,0,53,53,53,216.97162840003148,,,,,,,,,,,,,,,,216.9558911001077,216.97162840003148,217.67110630008392,217.67110630008392,218.17044340004213,218.15437290002592,218.15483590005897,218.17044340004213,218.40368070011027,218.58693220000714,218.58693220000714,218.80445720010903,space,1,0.20461910008452833,None,218.80831440002657,219.3195470001083,220.3188564000884,220.30284610006493,,,,,,,,,,,,,,,,,009,001,2025-04-30_22h40.46.475,Cued GoNogo Task,2024.2.4,60.05728263888077,2025-04-30 22h41.04.789034 +0200,
block/CondBlock1.xlsx,You are about to start a block of type 1 trials.,54,54,0,NoGo,NoGo,0.14,0.05,0.2,none,green,horizontal,space,0.6337300000013784,None,None,1,,,,,,0,0,0,0,0,54,54,54,220.3188564000884,,,,,,,,,,,,,,,,220.30321630008984,220.3188564000884,221.0182731000241,221.0182731000241,221.5177908000769,221.50176280003507,221.50236100004986,221.5177908000769,221.66757090005558,221.85076010006014,221.85076010006014,222.33452790009324,None,1,,,222.33731360000093,222.8501928000478,223.8492239000043,223.8332527000457,222.35042820009403,222.35042820009403,,,,,,,,,,,,,,,009,001,2025-04-30_22h40.46.475,Cued GoNogo Task,2024.2.4,60.05728263888077,2025-04-30 22h41.04.789034 +0200,
block/CondBlock1.xlsx,You are about to start a block of type 1 trials.,55,55,0,Go,Go,0.15,0.2,0.05,space,blue,vertical,space,0.6337300000013784,None,space,1,0.12179420003667474,None,,,,0,0,0,0,0,55,55,55,223.8492239000043,,,,,,,,,,,,,,,,223.83350410009734,223.8492239000043,224.54871130001266,224.54871130001266,225.0483234000858,225.0329493000172,225.03385370003525,225.0483234000858,225.19814750005025,225.39819050009828,225.39819050009828,225.53249910008162,space,1,0.12179420003667474,None,225.5366000001086,226.0472789000487,227.04660900007002,227.0306524001062,,,,,,,,,,,,,,,,,009,001,2025-04-30_22h40.46.475,Cued GoNogo Task,2024.2.4,60.05728263888077,2025-04-30 22h41.04.789034 +0200,
block/CondBlock1.xlsx,You are about to start a block of type 1 trials.,56,56,0,Go,Go,0.47,0.2,0.05,space,blue,vertical,space,0.6337300000013784,None,space,1,0.12783989997114986,None,,,,0,0,0,0,0,56,56,56,227.04660900007002,,,,,,,,,,,,,,,,227.03093780006748,227.04660900007002,227.7459900000831,227.7459900000831,228.24561960005667,228.22946990001947,228.22996800008696,228.24561960005667,228.7284673000686,228.9117394000059,228.9117394000059,229.04586920002475,space,1,0.12783989997114986,None,229.0492742001079,229.5611927000573,230.5603624000214,230.5443832000019,,,,,,,,,,,,,,,,,009,001,2025-04-30_22h40.46.475,Cued GoNogo Task,2024.2.4,60.05728263888077,2025-04-30 22h41.04.789034 +0200,
block/CondBlock1.xlsx,You are about to start a block of type 1 trials.,57,57,0,NoGo,NoGo,0.42,0.2,0.05,none,green,vertical,space,0.6337300000013784,None,None,1,,,,,,0,0,0,0,0,57,57,57,230.5603624000214,,,,,,,,,,,,,,,,230.5446484000422,230.5603624000214,231.2599662001012,231.2599662001012,231.75920850003604,231.74321090010926,231.743775100098,231.75920850003604,232.1923206000356,232.3755281000631,232.3755281000631,232.85917950002477,None,1,,,232.8620196999982,233.37483050010633,234.37388790003024,234.35823940008413,232.87514610006474,232.87514610006474,,,,,,,,,,,,,,,009,001,2025-04-30_22h40.46.475,Cued GoNogo Task,2024.2.4,60.05728263888077,2025-04-30 22h41.04.789034 +0200,
block/CondBlock1.xlsx,You are about to start a block of type 1 trials.,58,58,0,Go,Go,0.22,0.05,0.2,space,green,horizontal,space,0.6337300000013784,None,space,1,0.1542747999774292,None,,,,0,0,0,0,0,58,58,58,234.37388790003024,,,,,,,,,,,,,,,,234.3585538000334,234.37388790003024,235.0733531001024,235.0733531001024,235.57308600004762,235.55697940010577,235.5576124000363,235.57308600004762,235.8062567000743,235.98930210003164,235.98930210003164,236.15693140006624,space,1,0.1542747999774292,None,236.16151420003735,236.67197210004088,237.67118639999535,237.65528610011097,,,,,,,,,,,,,,,,,009,001,2025-04-30_22h40.46.475,Cued GoNogo Task,2024.2.4,60.05728263888077,2025-04-30 22h41.04.789034 +0200,
block/CondBlock1.xlsx,You are about to start a block of type 1 trials.,59,59,0,Go,Go,0.3,0.2,0.05,space,blue,vertical,space,0.6337300000013784,None,space,1,0.15820930001791567,None,,,,0,0,0,0,0,59,59,59,237.67118639999535,,,,,,,,,,,,,,,,237.65554310008883,237.67118639999535,238.37060780008323,238.37060780008323,238.87031460006256,238.85447690007277,238.85533780010883,238.87031460006256,239.1698569,239.36988430004567,239.36988430004567,239.5375847000396,space,1,0.15820930001791567,None,239.54232770006638,240.0525784000056,241.0516581000993,241.03592300007585,,,,,,,,,,,,,,,,,009,001,2025-04-30_22h40.46.475,Cued GoNogo Task,2024.2.4,60.05728263888077,2025-04-30 22h41.04.789034 +0200,
block/CondBlock1.xlsx,You are about to start a block of type 1 trials.,60,60,0,NoGo,NoGo,0.24,0.2,0.05,none,blue,vertical,space,0.6337300000013784,None,None,1,,,,,,0,0,0,0,0,60,60,60,241.0516581000993,,,,,,,,,,,,,,,,241.03617840004154,241.0516581000993,241.75111530011054,241.75111530011054,242.250660300022,242.23512050008867,242.23608820000663,242.250660300022,242.50048640009481,242.68376060004812,242.68376060004812,243.16744470002595,None,1,,,243.1701765001053,243.68292170006316,244.68189770006575,244.6658842000179,243.18323580001015,243.18323580001015,,,,,,,,,,,,,,,009,001,2025-04-30_22h40.46.475,Cued GoNogo Task,2024.2.4,60.05728263888077,2025-04-30 22h41.04.789034 +0200,
block/CondBlock1.xlsx,You are about to start a block of type 1 trials.,61,61,0,NoGo,NoGo,0.1,0.2,0.05,none,green,vertical,space,0.6337300000013784,None,None,1,,,,,,0,0,0,0,0,61,61,61,244.68189770006575,,,,,,,,,,,,,,,,244.66604939999525,244.68189770006575,245.38163230009377,245.38163230009377,245.8810296000447,245.86526240000967,245.86601620004512,245.8810296000447,245.98112530005164,246.180754500092,246.180754500092,246.6644850000739,None,1,,,246.6649461000925,247.1799214000348,248.17921370000113,248.16323050006758,246.68059300002642,246.68059300002642,,,,,,,,,,,,,,,009,001,2025-04-30_22h40.46.475,Cued GoNogo Task,2024.2.4,60.05728263888077,2025-04-30 22h41.04.789034 +0200,
block/CondBlock1.xlsx,You are about to start a block of type 1 trials.,62,62,0,Go,Go,0.45,0.05,0.2,space,blue,horizontal,space,0.6337300000013784,None,space,1,0.1083128999453038,None,,,,0,0,0,0,0,62,62,62,248.17921370000113,,,,,,,,,,,,,,,,248.16361290006898,248.17921370000113,248.87861410004552,248.87861410004552,249.37818350002635,249.36217970005237,249.36278230010066,249.37818350002635,249.82799780007917,250.02765460009687,250.02765460009687,250.14576570002828,space,1,0.1083128999453038,None,250.14977190003265,250.66054040007293,251.65968300006352,251.64402490004431,,,,,,,,,,,,,,,,,009,001,2025-04-30_22h40.46.475,Cued GoNogo Task,2024.2.4,60.05728263888077,2025-04-30 22h41.04.789034 +0200,
block/CondBlock1.xlsx,You are about to start a block of type 1 trials.,63,63,0,Go,Go,0.1,0.05,0.2,space,green,horizontal,space,0.6337300000013784,None,space,1,0.1371473999461159,None,,,,0,0,0,0,0,63,63,63,251.65968300006352,,,,,,,,,,,,,,,,251.64433170005213,251.65968300006352,252.35902580001857,252.35902580001857,252.8589009999996,252.84323910006788,252.8440967000788,252.8589009999996,252.9586237000767,253.1583700000774,253.1583700000774,253.30914890009444,space,1,0.1371473999461159,None,253.3117360000033,253.82448340009432,254.82376090006437,254.80753620003816,,,,,,,,,,,,,,,,,009,001,2025-04-30_22h40.46.475,Cued GoNogo Task,2024.2.4,60.05728263888077,2025-04-30 22h41.04.789034 +0200,
block/CondBlock1.xlsx,You are about to start a block of type 1 trials.,64,64,0,Go,Go,0.19,0.05,0.2,space,blue,horizontal,space,0.6337300000013784,None,space,1,0.13161469995975494,None,,,,0,0,0,0,0,64,64,64,254.82376090006437,,,,,,,,,,,,,,,,254.80780240008608,254.82376090006437,255.52321280003525,255.52321280003525,256.0226627000375,256.0069426000118,256.0077403000323,256.0226627000375,256.22262770007364,256.4057699000696,256.4057699000696,256.5411836000858,space,1,0.13161469995975494,None,256.54619760008063,257.0551648000255,258.05429410003126,258.03869549999945,,,,,,,,,,,,,,,,,009,001,2025-04-30_22h40.46.475,Cued GoNogo Task,2024.2.4,60.05728263888077,2025-04-30 22h41.04.789034 +0200,
block/CondBlock1.xlsx,You are about to start a block of type 1 trials.,65,65,0,Go,Go,0.21,0.2,0.05,space,blue,vertical,space,0.6337300000013784,None,space,1,0.13827449991367757,None,,,,0,0,0,0,0,65,65,65,258.05429410003126,,,,,,,,,,,,,,,,258.0389324000571,258.05429410003126,258.7538571000332,258.7538571000332,259.2534354000818,259.2377054000972,259.2384006000357,259.2534354000818,259.46996590006165,259.65318040002603,259.65318040002603,259.80417040002067,space,1,0.13827449991367757,None,259.8090217000572,260.31930930004455,261.31849870004226,261.3023608000949,,,,,,,,,,,,,,,,,009,001,2025-04-30_22h40.46.475,Cued GoNogo Task,2024.2.4,60.05728263888077,2025-04-30 22h41.04.789034 +0200,
block/CondBlock1.xlsx,You are about to start a block of type 1 trials.,66,66,0,Go,Go,0.18,0.05,0.2,space,blue,horizontal,space,0.6337300000013784,None,space,1,0.12529320002067834,None,,,,0,0,0,0,0,66,66,66,261.31849870004226,,,,,,,,,,,,,,,,261.30259100010153,261.31849870004226,262.01774700009264,262.01774700009264,262.51749570004176,262.5013055000454,262.50182230002247,262.51749570004176,262.7006317001069,262.88371170009486,262.88371170009486,263.0181156001054,space,1,0.12529320002067834,None,263.02208600007,263.53329799999483,264.5325795999961,264.5164613000816,,,,,,,,,,,,,,,,,009,001,2025-04-30_22h40.46.475,Cued GoNogo Task,2024.2.4,60.05728263888077,2025-04-30 22h41.04.789034 +0200,
block/CondBlock1.xlsx,You are about to start a block of type 1 trials.,67,67,0,Go,Go,0.29,0.2,0.05,space,green,vertical,space,0.6337300000013784,None,space,1,0.13809539994690567,None,,,,0,0,0,0,0,67,67,67,264.5325795999961,,,,,,,,,,,,,,,,264.5167116000084,264.5325795999961,265.231813600054,265.231813600054,265.73134749999736,265.7154078000458,265.71592119999696,265.73134749999736,266.03132390009705,266.21450860006735,266.21450860006735,266.36537450004835,space,1,0.13809539994690567,None,266.36945380002726,266.88050640001893,267.87977340002544,267.8636892000213,,,,,,,,,,,,,,,,,009,001,2025-04-30_22h40.46.475,Cued GoNogo Task,2024.2.4,60.05728263888077,2025-04-30 22h41.04.789034 +0200,
block/CondBlock1.xlsx,You are about to start a block of type 1 trials.,68,68,0,NoGo,NoGo,0.24,0.2,0.05,none,blue,vertical,space,0.6337300000013784,None,space,0,0.09666060004383326,None,,,,0,0,0,0,0,68,68,68,267.87977340002544,,,,,,,,,,,,,,,,267.864030500059,267.87977340002544,268.5791576000629,268.5791576000629,269.0785698000109,269.06264810007997,269.0632671000203,269.0785698000109,269.3285322000738,269.5115856000921,269.5115856000921,269.61272720003035,space,0,0.09666060004383326,None,269.62195960001554,270.1280056000687,,271.1274445001036,,,,,,,,,,,,,,,,,009,001,2025-04-30_22h40.46.475,Cued GoNogo Task,2024.2.4,60.05728263888077,2025-04-30 22h41.04.789034 +0200,
block/CondBlock1.xlsx,You are about to start a block of type 1 trials.,69,69,0,Go,Go,0.27,0.05,0.2,space,green,horizontal,space,0.6337300000013784,None,space,1,0.13605990004725754,None,,,,0,0,0,0,0,69,69,69,271.1436311000725,,,,,,,,,,,,,,,,271.12781120010186,271.1436311000725,271.8264387000818,271.8430321000051,272.32577560003847,272.3100791000761,272.31106780003756,272.32577560003847,272.60910010000225,272.79224810004234,272.79224810004234,272.94318640010897,space,1,0.13605990004725754,None,272.9470599000342,273.4584877000889,274.45764230005443,274.4419313000981,,,,,,,,,,,,,,,,,009,001,2025-04-30_22h40.46.475,Cued GoNogo Task,2024.2.4,60.05728263888077,2025-04-30 22h41.04.789034 +0200,
block/CondBlock1.xlsx,You are about to start a block of type 1 trials.,70,70,0,Go,Go,0.25,0.2,0.05,space,green,vertical,space,0.6337300000013784,None,space,1,0.11043180001433939,None,,,,0,0,0,0,0,70,70,70,274.45764230005443,,,,,,,,,,,,,,,,274.44225040008314,274.45764230005443,275.15702270006295,275.15702270006295,275.65657670004293,275.64081530005205,275.64147610007785,275.65657670004293,275.906298100017,276.1062957000686,276.1062957000686,276.22429100004956,space,1,0.11043180001433939,None,276.22835480002686,276.73910230002366,277.73822140006814,277.7227747000288,,,,,,,,,,,,,,,,,009,001,2025-04-30_22h40.46.475,Cued GoNogo Task,2024.2.4,60.05728263888077,2025-04-30 22h41.04.789034 +0200,
block/CondBlock1.xlsx,You are about to start a block of type 1 trials.,71,71,0,Go,Go,0.28,0.05,0.2,space,green,horizontal,space,0.6337300000013784,None,space,1,0.2280043000355363,None,,,,0,0,0,0,0,71,71,71,277.73822140006814,,,,,,,,,,,,,,,,277.7232382000657,277.73822140006814,278.4374591000378,278.4374591000378,278.9369908000808,278.92091370001435,278.9213399,278.9369908000808,279.2203598000342,279.40357580001,279.40357580001,279.63823650009,space,1,0.2280043000355363,None,279.64280830009375,280.1528576000128,281.15203760005534,281.1361871000845,,,,,,,,,,,,,,,,,009,001,2025-04-30_22h40.46.475,Cued GoNogo Task,2024.2.4,60.05728263888077,2025-04-30 22h41.04.789034 +0200,
block/CondBlock1.xlsx,You are about to start a block of type 1 trials.,72,72,0,Go,Go,0.14,0.05,0.2,space,blue,horizontal,space,0.6337300000013784,None,space,1,0.180059100035578,None,,,,0,0,0,0,0,72,72,72,281.15203760005534,,,,,,,,,,,,,,,,281.1365164000308,281.15203760005534,281.85150960006285,281.85150960006285,282.35112930007745,282.3352752000792,282.33593200007454,282.35112930007745,282.50095800007693,282.6842626000289,282.6842626000289,282.8688173000701,space,1,0.180059100035578,None,282.8739969000453,283.3836177000776,284.38259809999727,284.36703550000675,,,,,,,,,,,,,,,,,009,001,2025-04-30_22h40.46.475,Cued GoNogo Task,2024.2.4,60.05728263888077,2025-04-30 22h41.04.789034 +0200,
block/CondBlock1.xlsx,You are about to start a block of type 1 trials.,73,73,0,Go,Go,0.11,0.05,0.2,space,blue,horizontal,space,0.6337300000013784,None,space,1,0.17467710003256798,None,,,,0,0,0,0,0,73,73,73,284.38259809999727,,,,,,,,,,,,,,,,284.3673451000359,284.38259809999727,285.0823131001089,285.0823131001089,285.5817296000896,285.56604450009763,285.5666166000301,285.5817296000896,285.6982506000204,285.8817862001015,285.8817862001015,286.06569700001273,space,1,0.17467710003256798,None,286.06926270003896,286.5809865000192,287.58008650003467,287.5641615000786,,,,,,,,,,,,,,,,,009,001,2025-04-30_22h40.46.475,Cued GoNogo Task,2024.2.4,60.05728263888077,2025-04-30 22h41.04.789034 +0200,
block/CondBlock1.xlsx,You are about to start a block of type 1 trials.,74,74,0,Go,Go,0.22,0.2,0.05,space,blue,vertical,space,0.6337300000013784,None,space,1,0.11633119999896735,None,,,,0,0,0,0,0,74,74,74,287.58008650003467,,,,,,,,,,,,,,,,287.56441630003974,287.58008650003467,288.27962640009355,288.27962640009355,288.77908430004027,288.76300790009554,288.76356260001194,288.77908430004027,289.01244410010986,289.19568050000817,289.19568050000817,289.3141181000974,space,1,0.11633119999896735,None,289.3175071000587,289.82826180011034,290.8277059000684,290.81134050001856,,,,,,,,,,,,,,,,,009,001,2025-04-30_22h40.46.475,Cued GoNogo Task,2024.2.4,60.05728263888077,2025-04-30 22h41.04.789034 +0200,
block/CondBlock1.xlsx,You are about to start a block of type 1 trials.,75,75,0,Go,Go,0.26,0.05,0.2,space,blue,horizontal,space,0.6337300000013784,None,space,1,0.1326759000075981,None,,,,0,0,0,0,0,75,75,75,290.8277059000684,,,,,,,,,,,,,,,,290.8116118001053,290.8277059000684,291.5270015000133,291.5270015000133,292.0264520000201,292.01076140010264,292.0115508000599,292.0264520000201,292.2928156000562,292.47612070001196,292.47612070001196,292.61105020006653,space,1,0.1326759000075981,None,292.6144398000324,293.1255617000861,294.12469870003406,294.1089551000623,,,,,,,,,,,,,,,,,009,001,2025-04-30_22h40.46.475,Cued GoNogo Task,2024.2.4,60.05728263888077,2025-04-30 22h41.04.789034 +0200,
block/CondBlock1.xlsx,You are about to start a block of type 1 trials.,76,76,0,Go,Go,0.14,0.2,0.05,space,green,vertical,space,0.6337300000013784,None,space,1,0.13474050001241267,None,,,,0,0,0,0,0,76,76,76,294.12469870003406,,,,,,,,,,,,,,,,294.10927450004965,294.12469870003406,294.8241404000437,294.8241404000437,295.3235528001096,295.3075345000252,295.3081566001056,295.3235528001096,295.473817900056,295.6568914001109,295.6568914001109,295.8082187999971,space,1,0.13474050001241267,None,295.8120915000327,296.3229058000725,297.32214649999514,297.30599840008654,,,,,,,,,,,,,,,,,009,001,2025-04-30_22h40.46.475,Cued GoNogo Task,2024.2.4,60.05728263888077,2025-04-30 22h41.04.789034 +0200,
block/CondBlock1.xlsx,You are about to start a block of type 1 trials.,77,77,0,Go,Go,0.18,0.05,0.2,space,green,horizontal,space,0.6337300000013784,None,space,1,0.10386999999172986,None,,,,0,0,0,0,0,77,77,77,297.32214649999514,,,,,,,,,,,,,,,,297.3062662000302,297.32214649999514,298.02149280009326,298.02149280009326,298.5210577000398,298.505171900033,298.50569520005956,298.5210577000398,298.70437270007096,298.8875609000679,298.8875609000679,299.00514910009224,space,1,0.10386999999172986,None,299.00890320003964,299.520407400094,300.51956740010064,300.503455099999,,,,,,,,,,,,,,,,,009,001,2025-04-30_22h40.46.475,Cued GoNogo Task,2024.2.4,60.05728263888077,2025-04-30 22h41.04.789034 +0200,
block/CondBlock1.xlsx,You are about to start a block of type 1 trials.,78,78,0,NoGo,NoGo,0.27,0.05,0.2,none,blue,horizontal,space,0.6337300000013784,None,None,1,,,,,,0,0,0,0,0,78,78,78,300.51956740010064,,,,,,,,,,,,,,,,300.50371320010163,300.51956740010064,301.2189986000303,301.2189986000303,301.71844460000284,301.70252780010924,301.7031455000397,301.71844460000284,302.00150880008005,302.184856900014,302.184856900014,302.6686099000508,None,1,,,302.6719175000908,303.1842360000592,,304.1832417000551,302.6843841000227,302.6843841000227,,,,,,,,,,,,,,,009,001,2025-04-30_22h40.46.475,Cued GoNogo Task,2024.2.4,60.05728263888077,2025-04-30 22h41.04.789034 +0200,
block/CondBlock1.xlsx,You are about to start a block of type 1 trials.,79,79,0,NoGo,NoGo,0.26,0.2,0.05,none,blue,vertical,space,0.6337300000013784,None,None,1,,,,,,0,0,0,0,0,79,79,79,304.19971360010095,,,,,,,,,,,,,,,,304.18354370002635,304.19971360010095,304.88253760000225,304.8992944000056,305.382048200001,305.3663658000296,305.36712579999585,305.382048200001,305.6486562000355,305.83187880006153,305.83187880006153,306.3154757000739,None,1,,,306.3160112000769,306.8309500000905,307.8300509999972,307.8143574000569,306.3314589000074,306.3314589000074,,,,,,,,,,,,,,,009,001,2025-04-30_22h40.46.475,Cued GoNogo Task,2024.2.4,60.05728263888077,2025-04-30 22h41.04.789034 +0200,
block/CondBlock1.xlsx,You are about to start a block of type 1 trials.,80,80,0,Go,Go,0.22,0.2,0.05,space,green,vertical,space,0.6337300000013784,None,space,1,0.11527950002346188,None,,,,0,0,0,0,0,80,80,80,307.8300509999972,,,,,,,,,,,,,,,,307.814695600071,307.8300509999972,308.5295443000505,308.5295443000505,309.02919850009494,309.01357599999756,309.0143912000349,309.02919850009494,309.262446800014,309.4455759000266,309.4455759000266,309.56444730004296,space,1,0.11527950002346188,None,309.56816570006777,310.07822160003707,311.0773837000597,311.0616829000646,,,,,,,,,,,,,,,,,009,001,2025-04-30_22h40.46.475,Cued GoNogo Task,2024.2.4,60.05728263888077,2025-04-30 22h41.04.789034 +0200,
block/CondBlock1.xlsx,You are about to start a block of type 1 trials.,81,81,0,Go,Go,0.5,0.2,0.05,space,green,vertical,space,0.6337300000013784,None,space,1,0.21644129999913275,None,,,,0,0,0,0,0,81,81,81,311.0773837000597,,,,,,,,,,,,,,,,311.06198110000696,311.0773837000597,311.77695300010964,311.77695300010964,312.2765433000168,312.26068430009764,312.26156440004706,312.2765433000168,312.7759902999969,312.9760329000419,312.9760329000419,313.19457420008257,space,1,0.21644129999913275,None,313.1997805000283,313.70849480002653,314.70767880009953,314.6920782000525,,,,,,,,,,,,,,,,,009,001,2025-04-30_22h40.46.475,Cued GoNogo Task,2024.2.4,60.05728263888077,2025-04-30 22h41.04.789034 +0200,
block/CondBlock1.xlsx,You are about to start a block of type 1 trials.,82,82,0,Go,Go,0.43,0.05,0.2,space,green,horizontal,space,0.6337300000013784,None,space,1,0.1813265000237152,None,,,,0,0,0,0,0,82,82,82,314.70767880009953,,,,,,,,,,,,,,,,314.6922556000063,314.70767880009953,315.4071067000041,315.4071067000041,315.90686200000346,315.89118170004804,315.892337199999,315.90686200000346,316.339776000008,316.53961860004347,316.53961860004347,316.72393550002016,space,1,0.1813265000237152,None,316.7273103001062,317.23902570002247,318.2382334000431,318.2226692000404,,,,,,,,,,,,,,,,,009,001,2025-04-30_22h40.46.475,Cued GoNogo Task,2024.2.4,60.05728263888077,2025-04-30 22h41.04.789034 +0200,
block/CondBlock1.xlsx,You are about to start a block of type 1 trials.,83,83,0,Go,Go,0.25,0.2,0.05,space,green,vertical,space,0.6337300000013784,None,space,1,0.17724049999378622,None,,,,0,0,0,0,0,83,83,83,318.2382334000431,,,,,,,,,,,,,,,,318.2229176000692,318.2382334000431,318.93751000007614,318.93751000007614,319.43735480005853,319.42184000008274,319.4227842000546,319.43735480005853,319.687002300052,319.8868606000906,319.8868606000906,320.0713829000015,space,1,0.17724049999378622,None,320.0762415000936,320.5864252001047,321.58539040002506,321.56989590008743,,,,,,,,,,,,,,,,,009,001,2025-04-30_22h40.46.475,Cued GoNogo Task,2024.2.4,60.05728263888077,2025-04-30 22h41.04.789034 +0200,
block/CondBlock1.xlsx,You are about to start a block of type 1 trials.,84,84,0,NoGo,NoGo,0.14,0.2,0.05,none,green,vertical,space,0.6337300000013784,None,None,1,,,,,,0,0,0,0,0,84,84,84,321.58539040002506,,,,,,,,,,,,,,,,321.570213100058,321.58539040002506,322.28507050010376,322.28507050010376,322.78450030006934,322.76888590003364,322.7697460000636,322.78450030006934,322.9345164000988,323.11762000003364,323.11762000003364,323.60138150001876,None,1,,,323.6042379999999,324.1167541000759,325.11576830002014,325.10043480002787,323.6170936000999,323.6170936000999,,,,,,,,,,,,,,,009,001,2025-04-30_22h40.46.475,Cued GoNogo Task,2024.2.4,60.05728263888077,2025-04-30 22h41.04.789034 +0200,
block/CondBlock1.xlsx,You are about to start a block of type 1 trials.,85,85,0,Go,Go,0.2,0.05,0.2,space,blue,horizontal,space,0.6337300000013784,None,space,1,0.17413349996786565,None,,,,0,0,0,0,0,85,85,85,325.11576830002014,,,,,,,,,,,,,,,,325.10070810001343,325.11576830002014,325.8152736000484,325.8152736000484,326.3150399000151,326.2991151000606,326.2997746000765,326.3150399000151,326.5148587001022,326.7147349000443,326.7147349000443,326.8989405001048,space,1,0.17413349996786565,None,326.90424170007464,327.41388080001343,328.4133047000505,328.3975579000544,,,,,,,,,,,,,,,,,009,001,2025-04-30_22h40.46.475,Cued GoNogo Task,2024.2.4,60.05728263888077,2025-04-30 22h41.04.789034 +0200,
block/CondBlock1.xlsx,You are about to start a block of type 1 trials.,86,86,0,Go,Go,0.16,0.2,0.05,space,blue,vertical,space,0.6337300000013784,None,space,1,0.19815730000846088,None,,,,0,0,0,0,0,86,86,86,328.4133047000505,,,,,,,,,,,,,,,,328.39787490002345,328.4133047000505,329.1126787000103,329.1126787000103,329.61203820002265,329.5965735000791,329.59739870007616,329.61203820002265,329.77888360002544,329.9619838000508,329.9619838000508,330.1635155000258,space,1,0.19815730000846088,None,330.16793660004623,330.67802320001647,331.6771062000189,331.661207200028,,,,,,,,,,,,,,,,,009,001,2025-04-30_22h40.46.475,Cued GoNogo Task,2024.2.4,60.05728263888077,2025-04-30 22h41.04.789034 +0200,
block/CondBlock1.xlsx,You are about to start a block of type 1 trials.,87,87,0,Go,Go,0.41,0.2,0.05,space,green,vertical,space,0.6337300000013784,None,space,1,0.15624599996954203,None,,,,0,0,0,0,0,87,87,87,331.6771062000189,,,,,,,,,,,,,,,,331.6614827000303,331.6771062000189,332.37663320009597,332.37663320009597,332.8762548000086,332.8605824999977,332.8616596000502,332.8762548000086,333.2925033000065,333.4757649000967,333.4757649000967,333.6432218000991,space,1,0.15624599996954203,None,333.6465377000859,334.1584459000733,335.15764990006573,335.14173300005496,,,,,,,,,,,,,,,,,009,001,2025-04-30_22h40.46.475,Cued GoNogo Task,2024.2.4,60.05728263888077,2025-04-30 22h41.04.789034 +0200,
block/CondBlock1.xlsx,You are about to start a block of type 1 trials.,88,88,0,NoGo,NoGo,0.15,0.2,0.05,none,green,vertical,space,0.6337300000013784,None,None,1,,,,,,0,0,0,0,0,88,88,88,335.15764990006573,,,,,,,,,,,,,,,,335.1419698999962,335.15764990006573,335.85718120005913,335.85718120005913,336.3567438001046,336.3407983001089,336.34151480009314,336.3567438001046,336.5065523000667,336.70641169999726,336.70641169999726,337.19006620009895,None,1,,,337.19244540005457,337.7054450000869,338.7045576000819,338.68916579999495,337.2058981000446,337.2058981000446,,,,,,,,,,,,,,,009,001,2025-04-30_22h40.46.475,Cued GoNogo Task,2024.2.4,60.05728263888077,2025-04-30 22h41.04.789034 +0200,
block/CondBlock1.xlsx,You are about to start a block of type 1 trials.,89,89,0,Go,Go,0.24,0.05,0.2,space,blue,horizontal,space,0.6337300000013784,None,space,1,0.1437762000132352,None,,,,0,0,0,0,0,89,89,89,338.7045576000819,,,,,,,,,,,,,,,,338.68949930008966,338.7045576000819,339.4040700000478,339.4040700000478,339.9038183001103,339.88770340010524,339.8883245000616,339.9038183001103,340.15345560002606,340.33661500003655,340.33661500003655,340.4877193000866,space,1,0.1437762000132352,None,340.49212740000803,341.00282620009966,342.002035100013,341.98602330009453,,,,,,,,,,,,,,,,,009,001,2025-04-30_22h40.46.475,Cued GoNogo Task,2024.2.4,60.05728263888077,2025-04-30 22h41.04.789034 +0200,
block/CondBlock1.xlsx,You are about to start a block of type 1 trials.,90,90,0,Go,Go,0.25,0.2,0.05,space,blue,vertical,space,0.6337300000013784,None,space,1,0.22210999997332692,None,,,,0,0,0,0,0,90,90,90,342.002035100013,,,,,,,,,,,,,,,,341.9862748000305,342.002035100013,342.70141060010064,342.70141060010064,343.2008542000549,343.18469120003283,343.18511780002154,343.2008542000549,343.4508074000478,343.6506692999974,343.6506692999974,343.884914400056,space,1,0.22210999997332692,None,343.8885130000999,344.40006550005637,345.39929090009537,345.38332620006986,,,,,,,,,,,,,,,,,009,001,2025-04-30_22h40.46.475,Cued GoNogo Task,2024.2.4,60.05728263888077,2025-04-30 22h41.04.789034 +0200,
block/CondBlock1.xlsx,You are about to start a block of type 1 trials.,91,91,0,Go,Go,0.26,0.05,0.2,space,green,horizontal,space,0.6337300000013784,None,space,1,0.15236179996281862,None,,,,0,0,0,0,0,91,91,91,345.39929090009537,,,,,,,,,,,,,,,,345.3836117000319,345.39929090009537,346.0987688000314,346.0987688000314,346.5982413000893,346.5822636000812,346.5828814000124,346.5982413000893,346.86461700010113,347.0481426001061,347.0481426001061,347.21569820004515,space,1,0.15236179996281862,None,347.21957730001304,347.73082900000736,348.729730400024,348.7140637000557,,,,,,,,,,,,,,,,,009,001,2025-04-30_22h40.46.475,Cued GoNogo Task,2024.2.4,60.05728263888077,2025-04-30 22h41.04.789034 +0200,
block/CondBlock1.xlsx,You are about to start a block of type 1 trials.,92,92,0,NoGo,NoGo,0.44,0.2,0.05,none,blue,vertical,space,0.6337300000013784,None,None,1,,,,,,0,0,0,0,0,92,92,92,348.729730400024,,,,,,,,,,,,,,,,348.71432850009296,348.729730400024,349.4292656000471,349.4292656000471,349.9289990999969,349.912646700046,349.9132357001072,349.9289990999969,350.3784724000143,350.56179950002115,350.56179950002115,351.0453847000608,None,1,,,351.04793720005546,351.5607795000542,352.56003060005605,352.54396030004136,351.0612177000148,351.0612177000148,,,,,,,,,,,,,,,009,001,2025-04-30_22h40.46.475,Cued GoNogo Task,2024.2.4,60.05728263888077,2025-04-30 22h41.04.789034 +0200,
block/CondBlock1.xlsx,You are about to start a block of type 1 trials.,93,93,0,Go,Go,0.13,0.2,0.05,space,green,vertical,space,0.6337300000013784,None,space,1,0.17313299991656095,None,,,,0,0,0,0,0,93,93,93,352.56003060005605,,,,,,,,,,,,,,,,352.54419810010586,352.56003060005605,353.25930650008377,353.25930650008377,353.7590179000981,353.7432144000195,353.74408750003204,353.7590179000981,353.8922193000326,354.07530240004417,354.07530240004417,354.2596122000832,space,1,0.17313299991656095,None,354.2628530000802,354.77476100006606,355.77392490010243,355.75795390002895,,,,,,,,,,,,,,,,,009,001,2025-04-30_22h40.46.475,Cued GoNogo Task,2024.2.4,60.05728263888077,2025-04-30 22h41.04.789034 +0200,
block/CondBlock1.xlsx,You are about to start a block of type 1 trials.,94,94,0,Go,Go,0.44,0.05,0.2,space,blue,horizontal,space,0.6337300000013784,None,space,1,0.13059499999508262,None,,,,0,0,0,0,0,94,94,94,355.77392490010243,,,,,,,,,,,,,,,,355.7582037000684,355.77392490010243,356.4734123001108,356.4734123001108,356.9730092000682,356.95729190006386,356.95803780003916,356.9730092000682,357.42267360002734,357.60584690002725,357.60584690002725,357.7400792000117,space,1,0.13059499999508262,None,357.7434570000041,358.25534130004235,359.2545109000057,359.2385817000177,,,,,,,,,,,,,,,,,009,001,2025-04-30_22h40.46.475,Cued GoNogo Task,2024.2.4,60.05728263888077,2025-04-30 22h41.04.789034 +0200,
block/CondBlock1.xlsx,You are about to start a block of type 1 trials.,95,95,0,Go,Go,0.15,0.2,0.05,space,green,vertical,space,0.6337300000013784,None,space,1,0.14124610007274896,None,,,,0,0,0,0,0,95,95,95,359.2545109000057,,,,,,,,,,,,,,,,359.2388637000695,359.2545109000057,359.95404960005544,359.95404960005544,360.45350080006756,360.4377005000133,360.438400400104,360.45350080006756,360.6034575999947,360.80336320004426,360.80336320004426,360.9544345000759,space,1,0.14124610007274896,None,360.9585942000849,361.4693798000226,362.4685459000757,362.45265110000037,,,,,,,,,,,,,,,,,009,001,2025-04-30_22h40.46.475,Cued GoNogo Task,2024.2.4,60.05728263888077,2025-04-30 22h41.04.789034 +0200,
block/CondBlock1.xlsx,You are about to start a block of type 1 trials.,96,96,0,Go,Go,0.49,0.2,0.05,space,green,vertical,space,0.6337300000013784,None,space,1,0.09014700003899634,None,,,,0,0,0,0,0,96,96,96,362.4685459000757,,,,,,,,,,,,,,,,362.45291840005666,362.4685459000757,363.1678736000322,363.1678736000322,363.6674847000977,363.65176380006596,363.65256460011005,363.6674847000977,364.16718420002144,364.350421500043,364.350421500043,364.45141030009836,space,1,0.09014700003899634,None,364.45610950002447,364.9666003000457,365.96562680008356,365.9498775000684,,,,,,,,,,,,,,,,,009,001,2025-04-30_22h40.46.475,Cued GoNogo Task,2024.2.4,60.05728263888077,2025-04-30 22h41.04.789034 +0200,
block/CondBlock1.xlsx,You are about to start a block of type 1 trials.,97,97,0,Go,Go,0.11,0.2,0.05,space,blue,vertical,space,0.6337300000013784,None,space,1,0.13511819997802377,None,,,,0,0,0,0,0,97,97,97,365.96562680008356,,,,,,,,,,,,,,,,365.9501954000443,365.96562680008356,366.6650548001053,366.6650548001053,367.16461040009744,367.1488862000406,367.1496453,367.16461040009744,367.28118180006277,367.46439140010625,367.46439140010625,367.61573230009526,space,1,0.13511819997802377,None,367.62033320008777,368.1303826000076,369.12967660010327,369.11377990001347,,,,,,,,,,,,,,,,,009,001,2025-04-30_22h40.46.475,Cued GoNogo Task,2024.2.4,60.05728263888077,2025-04-30 22h41.04.789034 +0200,
block/CondBlock1.xlsx,You are about to start a block of type 1 trials.,98,98,0,Go,Go,0.26,0.05,0.2,space,green,horizontal,space,0.6337300000013784,None,space,1,0.08555570000316948,None,,,,0,0,0,0,0,98,98,98,369.12967660010327,,,,,,,,,,,,,,,,369.1141019000206,369.12967660010327,369.82921750005335,369.82921750005335,370.3287203001091,370.3130868000444,370.314143900061,370.3287203001091,370.5951758000301,370.77839200000744,370.77839200000744,370.879845000105,space,1,0.08555570000316948,None,370.8850259000901,371.3944800000172,372.3936270000413,372.3780838000821,,,,,,,,,,,,,,,,,009,001,2025-04-30_22h40.46.475,Cued GoNogo Task,2024.2.4,60.05728263888077,2025-04-30 22h41.04.789034 +0200,
block/CondBlock1.xlsx,You are about to start a block of type 1 trials.,99,99,0,Go,Go,0.28,0.05,0.2,space,green,horizontal,space,0.6337300000013784,None,space,1,0.12556030007544905,None,,,,0,0,0,0,0,99,99,99,372.3936270000413,,,,,,,,,,,,,,,,372.3784727000166,372.3936270000413,373.0931179000763,373.0931179000763,373.59276260004845,373.5765176001005,373.57715650007594,373.59276260004845,373.8758892000187,374.05920470005367,374.05920470005367,374.193604900036,space,1,0.12556030007544905,None,374.19639490009286,374.7086307000136,,375.707907400094,,,,,,,,,,,,,,,,,009,001,2025-04-30_22h40.46.475,Cued GoNogo Task,2024.2.4,60.05728263888077,2025-04-30 22h41.04.789034 +0200,
block/CondBlock1.xlsx,You are about to start a block of type 1 trials.,0,0,0,,,,,,,,,space,0.6337300000013784,None,,,,,space,0.37173240003176033,None,0,0,0,0,,,,,,,,,,,,,,,,,,,,,,,,,,,,,,,,,,,,,,,,,,,375.72153120010626,375.72417560010217,375.72417560010217,376.108271800098,space,0.37173240003176033,None,,,,,,,,009,001,2025-04-30_22h40.46.475,Cued GoNogo Task,2024.2.4,60.05728263888077,2025-04-30 22h41.04.789034 +0200,
block/CondBlock2.xlsx,You are about to start a block of type 2 trials.,0,0,0,Go,Go,0.18,0.05,0.2,space,green,horizontal,space,274.06850210006814,None,space,1,0.18741150002460927,None,,,,0,1,1,1,0,0,0,0,650.2223347000545,,,,,,,,,376.1122564000543,376.12385890004225,376.12385890004225,650.2004074000288,space,274.06850210006814,None,650.2202175999992,650.2223347000545,650.9145278000506,650.9311725000152,651.4142030000221,651.3984042000957,651.3992656000191,651.4142030000221,651.5973372000735,651.7806807000889,651.7806807000889,651.9814803000772,space,1,0.18741150002460927,None,651.9852902001003,652.4967314000241,653.4957219000207,653.4798818000127,,,,,,,,,,,,,,,,,009,001,2025-04-30_22h40.46.475,Cued GoNogo Task,2024.2.4,60.05728263888077,2025-04-30 22h41.04.789034 +0200,
block/CondBlock2.xlsx,You are about to start a block of type 2 trials.,1,1,0,Go,Go,0.2,0.2,0.05,space,green,vertical,space,274.06850210006814,None,space,1,0.21807780000381172,None,,,,0,1,1,1,0,1,1,1,653.4957219000207,,,,,,,,,,,,,,,,653.4801475000568,653.4957219000207,654.1950969001045,654.1950969001045,654.6947470000014,654.6785333000589,654.6789260000223,654.6947470000014,654.8945363000967,655.0944541000063,655.0944541000063,655.3283140000422,space,1,0.21807780000381172,None,655.330997900106,655.8437771000899,656.8430586000904,656.8270891000284,,,,,,,,,,,,,,,,,009,001,2025-04-30_22h40.46.475,Cued GoNogo Task,2024.2.4,60.05728263888077,2025-04-30 22h41.04.789034 +0200,
block/CondBlock2.xlsx,You are about to start a block of type 2 trials.,2,2,0,Go,Go,0.22,0.05,0.2,space,blue,horizontal,space,274.06850210006814,None,space,1,0.11785879998933524,None,,,,0,1,1,1,0,2,2,2,656.8430586000904,,,,,,,,,,,,,,,,656.8273839000612,656.8430586000904,657.5424664000748,657.5424664000748,658.0420607000124,658.0260336000938,658.0266527000349,658.0420607000124,658.275250100065,658.4583999000024,658.4583999000024,658.5931207000976,space,1,0.11785879998933524,None,658.5973970000632,659.107987800031,660.1069708000869,660.0912940000417,,,,,,,,,,,,,,,,,009,001,2025-04-30_22h40.46.475,Cued GoNogo Task,2024.2.4,60.05728263888077,2025-04-30 22h41.04.789034 +0200,
block/CondBlock2.xlsx,You are about to start a block of type 2 trials.,3,3,0,Go,Go,0.14,0.05,0.2,space,green,horizontal,space,274.06850210006814,None,space,1,0.12947509996592999,None,,,,0,1,1,1,0,3,3,3,660.1069708000869,,,,,,,,,,,,,,,,660.0915884000715,660.1069708000869,660.8067097000312,660.8067097000312,661.3059238001006,661.2900207000785,661.2905531000579,661.3059238001006,661.4561120000435,661.6391339000547,661.6391339000547,661.7736628000857,space,1,0.12947509996592999,None,661.778461900074,662.288895500009,663.2875949000008,663.2720111000817,,,,,,,,,,,,,,,,,009,001,2025-04-30_22h40.46.475,Cued GoNogo Task,2024.2.4,60.05728263888077,2025-04-30 22h41.04.789034 +0200,
block/CondBlock2.xlsx,You are about to start a block of type 2 trials.,4,4,0,Go,Go,0.26,0.05,0.2,space,blue,horizontal,space,274.06850210006814,None,space,1,0.08770190004725009,None,,,,0,1,1,1,0,4,4,4,663.2875949000008,,,,,,,,,,,,,,,,663.2722068000585,663.2875949000008,663.9871678000782,663.9871678000782,664.4867063000565,664.4705455000512,664.4710752000101,664.4867063000565,664.753199400031,664.9362796000205,664.9362796000205,665.037138100015,space,1,0.08770190004725009,None,665.040304300026,665.5524249000009,666.5516401000787,666.5356716000242,,,,,,,,,,,,,,,,,009,001,2025-04-30_22h40.46.475,Cued GoNogo Task,2024.2.4,60.05728263888077,2025-04-30 22h41.04.789034 +0200,
block/CondBlock2.xlsx,You are about to start a block of type 2 trials.,5,5,0,Go,Go,0.1,0.05,0.2,space,blue,horizontal,space,274.06850210006814,None,space,1,0.09380950010381639,None,,,,0,1,1,1,0,5,5,5,666.5516401000787,,,,,,,,,,,,,,,,666.5358826000011,666.5516401000787,667.251183400047,667.251183400047,667.7506640000502,667.7347238000948,667.7352783000097,667.7506640000502,667.8507147000637,668.0504494000925,668.0504494000925,668.1513301000232,space,1,0.09380950010381639,None,668.1550354000647,668.6665990001056,669.6659187000478,669.649793800083,,,,,,,,,,,,,,,,,009,001,2025-04-30_22h40.46.475,Cued GoNogo Task,2024.2.4,60.05728263888077,2025-04-30 22h41.04.789034 +0200,
block/CondBlock2.xlsx,You are about to start a block of type 2 trials.,6,6,0,NoGo,NoGo,0.3,0.2,0.05,none,green,vertical,space,274.06850210006814,None,None,1,,,,,,0,1,1,1,0,6,6,6,669.6659187000478,,,,,,,,,,,,,,,,669.6499725000467,669.6659187000478,670.3651934000663,670.3651934000663,670.864857000066,670.8486084000906,670.8491986000445,670.864857000066,671.1644408000866,671.364215800073,671.364215800073,671.848249200033,None,1,,,671.851236400078,672.3635856000474,673.3628023000201,673.3467621000018,671.8639216000447,671.8639216000447,,,,,,,,,,,,,,,009,001,2025-04-30_22h40.46.475,Cued GoNogo Task,2024.2.4,60.05728263888077,2025-04-30 22h41.04.789034 +0200,
block/CondBlock2.xlsx,You are about to start a block of type 2 trials.,7,7,0,NoGo,NoGo,0.14,0.05,0.2,none,blue,horizontal,space,274.06850210006814,None,None,1,,,,,,0,1,1,1,0,7,7,7,673.3628023000201,,,,,,,,,,,,,,,,673.3469537000638,673.3628023000201,674.0623021000065,674.0623021000065,674.5617481000954,674.5458352999995,674.5463179000653,674.5617481000954,674.711718400009,674.8947741000447,674.8947741000447,675.3789767000126,None,1,,,675.3794251000509,675.8938627000898,676.893062200048,676.8772435000865,675.3943783000577,675.3943783000577,,,,,,,,,,,,,,,009,001,2025-04-30_22h40.46.475,Cued GoNogo Task,2024.2.4,60.05728263888077,2025-04-30 22h41.04.789034 +0200,
block/CondBlock2.xlsx,You are about to start a block of type 2 trials.,8,8,0,Go,Go,0.13,0.2,0.05,space,blue,vertical,space,274.06850210006814,None,space,1,0.12769559992011636,None,,,,0,1,1,1,0,8,8,8,676.893062200048,,,,,,,,,,,,,,,,676.8774869000772,676.893062200048,677.5926917000907,677.5926917000907,678.0922682000091,678.0764743000036,678.0769914000994,678.0922682000091,678.2253924000543,678.408601900097,678.408601900097,678.5431366000557,space,1,0.12769559992011636,None,678.5469678000081,679.058105400065,680.0573374000378,680.0414504000219,,,,,,,,,,,,,,,,,009,001,2025-04-30_22h40.46.475,Cued GoNogo Task,2024.2.4,60.05728263888077,2025-04-30 22h41.04.789034 +0200,
block/CondBlock2.xlsx,You are about to start a block of type 2 trials.,9,9,0,Go,Go,0.43,0.2,0.05,space,green,vertical,space,274.06850210006814,None,space,1,0.40024230000562966,None,,,,0,1,1,1,0,9,9,9,680.0573374000378,,,,,,,,,,,,,,,,680.0417465000646,680.0573374000378,680.7566510000033,680.7566510000033,681.2564536000136,681.2404878000962,681.2412017000606,681.2564536000136,681.6893301000819,681.8724456001073,681.8724456001073,682.2748040000442,space,1,0.40024230000562966,None,682.2790072000353,682.7884080000222,683.7874265999999,683.7716733000707,,,,,,,,,,,,,,,,,009,001,2025-04-30_22h40.46.475,Cued GoNogo Task,2024.2.4,60.05728263888077,2025-04-30 22h41.04.789034 +0200,
block/CondBlock2.xlsx,You are about to start a block of type 2 trials.,10,10,0,Go,Go,0.14,0.2,0.05,space,green,vertical,space,274.06850210006814,None,space,1,0.12055290001444519,None,,,,0,1,1,1,0,10,10,10,683.7874265999999,,,,,,,,,,,,,,,,683.7719387999969,683.7874265999999,684.4869010000257,684.4869010000257,684.9866023000795,684.9705951000797,684.9711239000317,684.9866023000795,685.1363360000541,685.3198392000049,685.3198392000049,685.4538481000345,space,1,0.12055290001444519,None,685.4570588000352,685.9689950000029,686.9682466000086,686.9522942000767,,,,,,,,,,,,,,,,,009,001,2025-04-30_22h40.46.475,Cued GoNogo Task,2024.2.4,60.05728263888077,2025-04-30 22h41.04.789034 +0200,
block/CondBlock2.xlsx,You are about to start a block of type 2 trials.,11,11,0,Go,Go,0.27,0.2,0.05,space,green,vertical,space,274.06850210006814,None,space,1,0.1827222000574693,None,,,,0,1,1,1,0,11,11,11,686.9682466000086,,,,,,,,,,,,,,,,686.9525770000182,686.9682466000086,687.6676864000037,687.6676864000037,688.1672603000188,688.1512774000876,688.1518410000717,688.1672603000188,688.4503942000447,688.6335781000089,688.6335781000089,688.8198542000027,space,1,0.1827222000574693,None,688.8231323000509,689.3330849000486,690.3321199000347,690.3165542000206,,,,,,,,,,,,,,,,,009,001,2025-04-30_22h40.46.475,Cued GoNogo Task,2024.2.4,60.05728263888077,2025-04-30 22h41.04.789034 +0200,
block/CondBlock2.xlsx,You are about to start a block of type 2 trials.,12,12,0,Go,Go,0.3,0.05,0.2,space,green,horizontal,space,274.06850210006814,None,space,1,0.1930140999611467,None,,,,0,1,1,1,0,12,12,12,690.3321199000347,,,,,,,,,,,,,,,,690.3167480000993,690.3321199000347,691.0317453000462,691.0317453000462,691.5311440000078,691.5152789000422,691.5158497000812,691.5311440000078,691.8308312000008,692.0307603999972,692.0307603999972,692.2314816000871,space,1,0.1930140999611467,None,692.234617200098,692.7467959000496,693.7461927999975,693.7299321000464,,,,,,,,,,,,,,,,,009,001,2025-04-30_22h40.46.475,Cued GoNogo Task,2024.2.4,60.05728263888077,2025-04-30 22h41.04.789034 +0200,
block/CondBlock2.xlsx,You are about to start a block of type 2 trials.,13,13,0,Go,Go,0.18,0.2,0.05,space,blue,vertical,space,274.06850210006814,None,space,1,0.18494740000460297,None,,,,0,1,1,1,0,13,13,13,693.7461927999975,,,,,,,,,,,,,,,,693.7301567000104,693.7461927999975,694.445386400097,694.445386400097,694.9450280000456,694.9295143000782,694.930085,694.9450280000456,695.1281939001055,695.3114625000162,695.3114625000162,695.5121965000872,space,1,0.18494740000460297,None,695.5153647999978,696.0274782000342,697.0266253000591,697.0106870000018,,,,,,,,,,,,,,,,,009,001,2025-04-30_22h40.46.475,Cued GoNogo Task,2024.2.4,60.05728263888077,2025-04-30 22h41.04.789034 +0200,
block/CondBlock2.xlsx,You are about to start a block of type 2 trials.,14,14,0,Go,Go,0.13,0.2,0.05,space,green,vertical,space,274.06850210006814,None,space,1,0.14579790004063398,None,,,,0,1,1,1,0,14,14,14,697.0266253000591,,,,,,,,,,,,,,,,697.0109076000517,697.0266253000591,697.7261068000225,697.7261068000225,698.2256584001007,698.2096655000933,698.2102249000454,698.2256584001007,698.3588256000075,698.5421046999982,698.5421046999982,698.693226100062,space,1,0.14579790004063398,None,698.6960220000474,699.2082242000615,700.2072064999957,700.1911559000146,,,,,,,,,,,,,,,,,009,001,2025-04-30_22h40.46.475,Cued GoNogo Task,2024.2.4,60.05728263888077,2025-04-30 22h41.04.789034 +0200,
block/CondBlock2.xlsx,You are about to start a block of type 2 trials.,15,15,0,Go,Go,0.18,0.2,0.05,space,blue,vertical,space,274.06850210006814,None,space,1,0.2036332000279799,None,,,,0,1,1,1,0,15,15,15,700.2072064999957,,,,,,,,,,,,,,,,700.1913412000285,700.2072064999957,700.9067610000493,700.9067610000493,701.4063832000829,701.3903949001106,701.3909870000789,701.4063832000829,701.5895009000087,701.7727829000214,701.7727829000214,701.9903532000026,space,1,0.2036332000279799,None,701.9942295000656,702.5056802000618,703.5045888000168,703.4888202000875,,,,,,,,,,,,,,,,,009,001,2025-04-30_22h40.46.475,Cued GoNogo Task,2024.2.4,60.05728263888077,2025-04-30 22h41.04.789034 +0200,
block/CondBlock2.xlsx,You are about to start a block of type 2 trials.,16,16,0,Go,Go,0.24,0.2,0.05,space,green,vertical,space,274.06850210006814,None,space,1,0.12835290003567934,None,,,,0,1,1,1,0,16,16,16,703.5045888000168,,,,,,,,,,,,,,,,703.4891131001059,703.5045888000168,704.2039940000977,704.2039940000977,704.7038429999957,704.6873374000425,704.6878223000094,704.7038429999957,704.9536435001064,705.1368556000525,705.1368556000525,705.2707884000847,space,1,0.12835290003567934,None,705.2737358000595,705.7861926000332,706.785163499997,706.7692861000542,,,,,,,,,,,,,,,,,009,001,2025-04-30_22h40.46.475,Cued GoNogo Task,2024.2.4,60.05728263888077,2025-04-30 22h41.04.789034 +0200,
block/CondBlock2.xlsx,You are about to start a block of type 2 trials.,17,17,0,Go,Go,0.26,0.2,0.05,space,blue,vertical,space,274.06850210006814,None,space,1,0.19807449996005744,None,,,,0,1,1,1,0,17,17,17,706.785163499997,,,,,,,,,,,,,,,,706.7695355000906,706.785163499997,707.4847054000711,707.4847054000711,707.9844089000253,707.9682055000449,707.9687197000021,707.9844089000253,708.2507162000984,708.4338470000075,708.4338470000075,708.6351947000949,space,1,0.19807449996005744,None,708.6386390000116,709.1499981000088,710.1491223000921,710.1334031000733,,,,,,,,,,,,,,,,,009,001,2025-04-30_22h40.46.475,Cued GoNogo Task,2024.2.4,60.05728263888077,2025-04-30 22h41.04.789034 +0200,
block/CondBlock2.xlsx,You are about to start a block of type 2 trials.,18,18,0,Go,Go,0.1,0.05,0.2,space,blue,horizontal,space,274.06850210006814,None,space,1,0.07188900001347065,None,,,,0,1,1,1,0,18,18,18,710.1491223000921,,,,,,,,,,,,,,,,710.1335937000113,710.1491223000921,710.8487838000292,710.8487838000292,711.3480091000674,711.3321745001012,711.3325871000998,711.3480091000674,711.4481118000112,711.6480177000631,711.6480177000631,711.7323655000655,space,1,0.07188900001347065,None,711.735669100075,712.2475525001064,713.2466265000403,713.2305648000911,,,,,,,,,,,,,,,,,009,001,2025-04-30_22h40.46.475,Cued GoNogo Task,2024.2.4,60.05728263888077,2025-04-30 22h41.04.789034 +0200,
block/CondBlock2.xlsx,You are about to start a block of type 2 trials.,19,19,0,Go,Go,0.46,0.2,0.05,space,blue,vertical,space,274.06850210006814,None,space,1,0.12846410006750375,None,,,,0,1,1,1,0,19,19,19,713.2466265000403,,,,,,,,,,,,,,,,713.2307501001051,713.2466265000403,713.9460742000956,713.9460742000956,714.4455697000958,714.4297363000223,714.4304257000331,714.4455697000958,714.9117958000861,715.0952529000351,715.0952529000351,715.2293525000568,space,1,0.12846410006750375,None,715.2323956000619,715.7447469000472,716.7436407000059,716.7280370000517,,,,,,,,,,,,,,,,,009,001,2025-04-30_22h40.46.475,Cued GoNogo Task,2024.2.4,60.05728263888077,2025-04-30 22h41.04.789034 +0200,
block/CondBlock2.xlsx,You are about to start a block of type 2 trials.,20,20,0,Go,Go,0.3,0.05,0.2,space,blue,horizontal,space,274.06850210006814,None,space,1,0.11098430003039539,None,,,,0,1,1,1,0,20,20,20,716.7436407000059,,,,,,,,,,,,,,,,716.7283327000914,716.7436407000059,717.443080099998,717.443080099998,717.9427871000953,717.9269309000811,717.9278207001043,717.9427871000953,718.2426175000146,718.4424291000469,718.4424291000469,718.5602018000791,space,1,0.11098430003039539,None,718.5639989000047,719.0751281999983,720.0745620999951,720.0585696001071,,,,,,,,,,,,,,,,,009,001,2025-04-30_22h40.46.475,Cued GoNogo Task,2024.2.4,60.05728263888077,2025-04-30 22h41.04.789034 +0200,
block/CondBlock2.xlsx,You are about to start a block of type 2 trials.,21,21,0,Go,Go,0.23,0.05,0.2,space,green,horizontal,space,274.06850210006814,None,space,1,0.141702999942936,None,,,,0,1,1,1,0,21,21,21,720.0745620999951,,,,,,,,,,,,,,,,720.0590830000583,720.0745620999951,720.773735600058,720.773735600058,721.2733878000872,721.2574799000286,721.2580504000653,721.2733878000872,721.5066539000254,721.6898101000115,721.6898101000115,721.8409109000349,space,1,0.141702999942936,None,721.8450164000969,722.355753300013,723.3549407999963,723.3389347000048,,,,,,,,,,,,,,,,,009,001,2025-04-30_22h40.46.475,Cued GoNogo Task,2024.2.4,60.05728263888077,2025-04-30 22h41.04.789034 +0200,
block/CondBlock2.xlsx,You are about to start a block of type 2 trials.,22,22,0,Go,Go,0.19,0.2,0.05,space,green,vertical,space,274.06850210006814,None,space,1,0.15861420007422566,None,,,,0,1,1,1,0,22,22,22,723.3549407999963,,,,,,,,,,,,,,,,723.3391116000712,723.3549407999963,724.0543856000295,724.0543856000295,724.5540086000692,724.5385572001105,724.539295500028,724.5540086000692,724.7538661001017,724.9369493999984,724.9369493999984,725.1045672000619,space,1,0.15861420007422566,None,725.108131700079,725.6198872000678,726.6188758000499,726.6030676000519,,,,,,,,,,,,,,,,,009,001,2025-04-30_22h40.46.475,Cued GoNogo Task,2024.2.4,60.05728263888077,2025-04-30 22h41.04.789034 +0200,
block/CondBlock2.xlsx,You are about to start a block of type 2 trials.,23,23,0,NoGo,NoGo,0.41,0.2,0.05,none,blue,vertical,space,274.06850210006814,None,space,0,0.15935620001982898,None,,,,0,1,1,1,0,23,23,23,726.6188758000499,,,,,,,,,,,,,,,,726.6033389000222,726.6188758000499,727.3183759000385,727.3183759000385,727.8179739000043,727.801872100099,727.802421700093,727.8179739000043,728.2345498000504,728.417678100057,728.417678100057,728.5847977000521,space,0,0.15935620001982898,None,728.5890662000747,729.1003902000375,730.0993786000181,730.0832920999965,,,,,,,,,,,,,,,,,009,001,2025-04-30_22h40.46.475,Cued GoNogo Task,2024.2.4,60.05728263888077,2025-04-30 22h41.04.789034 +0200,
block/CondBlock2.xlsx,You are about to start a block of type 2 trials.,24,24,0,Go,Go,0.17,0.2,0.05,space,blue,vertical,space,274.06850210006814,None,space,1,0.18323700001928955,None,,,,0,1,1,1,0,24,24,24,730.0993786000181,,,,,,,,,,,,,,,,730.0835728000384,730.0993786000181,730.7989326000679,730.7989326000679,731.2985153000336,731.2822127999971,731.282651900081,731.2985153000336,731.4817219000543,731.6648576000007,731.6648576000007,731.8501652000705,space,1,0.18323700001928955,None,731.853989800089,732.3642484000884,733.3633229000261,733.3474445000757,,,,,,,,,,,,,,,,,009,001,2025-04-30_22h40.46.475,Cued GoNogo Task,2024.2.4,60.05728263888077,2025-04-30 22h41.04.789034 +0200,
block/CondBlock2.xlsx,You are about to start a block of type 2 trials.,25,25,0,Go,Go,0.27,0.05,0.2,space,blue,horizontal,space,274.06850210006814,None,space,1,0.17943020001985133,None,,,,0,1,1,1,0,25,25,25,733.3633229000261,,,,,,,,,,,,,,,,733.3476678000297,733.3633229000261,734.0628224000102,734.0628224000102,734.5624377001077,734.5461725000059,734.5466228000587,734.5624377001077,734.8454612001078,735.0288263000548,735.0288263000548,735.2129646000685,space,1,0.17943020001985133,None,735.2159952000948,735.7282177000307,736.7272778000915,736.7112768000225,,,,,,,,,,,,,,,,,009,001,2025-04-30_22h40.46.475,Cued GoNogo Task,2024.2.4,60.05728263888077,2025-04-30 22h41.04.789034 +0200,
block/CondBlock2.xlsx,You are about to start a block of type 2 trials.,26,26,0,Go,Go,0.26,0.05,0.2,space,green,horizontal,space,274.06850210006814,None,space,1,0.14486649993341416,None,,,,0,1,1,1,0,26,26,26,736.7272778000915,,,,,,,,,,,,,,,,736.7114825000754,736.7272778000915,737.4266782000195,737.4266782000195,737.9261985000921,737.910274200025,737.9110000000801,737.9261985000921,738.1926440000534,738.3758787000552,738.3758787000552,738.5269659000915,space,1,0.14486649993341416,None,738.5304134000326,739.0420996000757,740.0415905000409,740.0253817000194,,,,,,,,,,,,,,,,,009,001,2025-04-30_22h40.46.475,Cued GoNogo Task,2024.2.4,60.05728263888077,2025-04-30 22h41.04.789034 +0200,
block/CondBlock2.xlsx,You are about to start a block of type 2 trials.,27,27,0,Go,Go,0.22,0.2,0.05,space,green,vertical,space,274.06850210006814,None,space,1,0.19930500001646578,None,,,,0,1,1,1,0,27,27,27,740.0415905000409,,,,,,,,,,,,,,,,740.0256809000857,740.0415905000409,740.7406591000035,740.7406591000035,741.2401982001029,741.2241820000345,741.2247561000986,741.2401982001029,741.4734779000282,741.6567335000727,741.6567335000727,741.8583554000361,space,1,0.19930500001646578,None,741.862460500095,742.3727392000146,743.3718007000862,743.356017800048,,,,,,,,,,,,,,,,,009,001,2025-04-30_22h40.46.475,Cued GoNogo Task,2024.2.4,60.05728263888077,2025-04-30 22h41.04.789034 +0200,
block/CondBlock2.xlsx,You are about to start a block of type 2 trials.,28,28,0,Go,Go,0.19,0.05,0.2,space,blue,horizontal,space,274.06850210006814,None,space,1,0.15858419996220618,None,,,,0,1,1,1,0,28,28,28,743.3718007000862,,,,,,,,,,,,,,,,743.3562935000518,743.3718007000862,744.0713390000165,744.0713390000165,744.5707929000491,744.5549206000287,744.5556367000099,744.5707929000491,744.7708175000735,744.9539184001042,744.9539184001042,745.1218785000965,space,1,0.15858419996220618,None,745.1258232000982,745.6368520000251,746.6358479000628,746.6199383001076,,,,,,,,,,,,,,,,,009,001,2025-04-30_22h40.46.475,Cued GoNogo Task,2024.2.4,60.05728263888077,2025-04-30 22h41.04.789034 +0200,
block/CondBlock2.xlsx,You are about to start a block of type 2 trials.,29,29,0,Go,Go,0.18,0.05,0.2,space,blue,horizontal,space,274.06850210006814,None,space,1,0.1346742999739945,None,,,,0,1,1,1,0,29,29,29,746.6358479000628,,,,,,,,,,,,,,,,746.6202622000128,746.6358479000628,747.3353414000012,747.3353414000012,747.8347088000737,747.8187182000838,747.8190930000274,747.8347088000737,748.0180722000077,748.2011802000925,748.2011802000925,748.3523137000157,space,1,0.1346742999739945,None,748.3558318000287,748.8674836000428,749.8664570000255,749.8504735000897,,,,,,,,,,,,,,,,,009,001,2025-04-30_22h40.46.475,Cued GoNogo Task,2024.2.4,60.05728263888077,2025-04-30 22h41.04.789034 +0200,
block/CondBlock2.xlsx,You are about to start a block of type 2 trials.,30,30,0,NoGo,NoGo,0.23,0.2,0.05,none,blue,vertical,space,274.06850210006814,None,None,1,,,,,,0,1,1,1,0,30,30,30,749.8664570000255,,,,,,,,,,,,,,,,749.8506915000034,749.8664570000255,750.5660738000879,750.5660738000879,751.0655789000448,751.0497864000499,751.0505027000327,751.0655789000448,751.2986424000701,751.4819649000419,751.4819649000419,751.9655086999992,None,1,,,751.9676268000621,752.4810630000429,753.4801641000668,753.4645537000615,751.9814705000026,751.9814705000026,,,,,,,,,,,,,,,009,001,2025-04-30_22h40.46.475,Cued GoNogo Task,2024.2.4,60.05728263888077,2025-04-30 22h41.04.789034 +0200,
block/CondBlock2.xlsx,You are about to start a block of type 2 trials.,31,31,0,Go,Go,0.43,0.2,0.05,space,green,vertical,space,274.06850210006814,None,space,1,0.12090970005374402,None,,,,0,1,1,1,0,31,31,31,753.4801641000668,,,,,,,,,,,,,,,,753.4648466000799,753.4801641000668,754.1796466000378,754.1796466000378,754.6791345000966,754.6630018000724,754.663448400097,754.6791345000966,755.1121678000782,755.2953320000088,755.2953320000088,755.4295864000451,space,1,0.12090970005374402,None,755.4337846999988,755.944936200045,756.9438725000946,756.927904900047,,,,,,,,,,,,,,,,,009,001,2025-04-30_22h40.46.475,Cued GoNogo Task,2024.2.4,60.05728263888077,2025-04-30 22h41.04.789034 +0200,
block/CondBlock2.xlsx,You are about to start a block of type 2 trials.,32,32,0,Go,Go,0.13,0.05,0.2,space,blue,horizontal,space,274.06850210006814,None,space,1,0.1723443999653682,None,,,,0,1,1,1,0,32,32,32,756.9438725000946,,,,,,,,,,,,,,,,756.9280946000945,756.9438725000946,757.6434687000001,757.6434687000001,758.1430562000023,758.1269470000407,758.1275124000385,758.1430562000023,758.2761617000215,758.4593744000886,758.4593744000886,758.643416200066,space,1,0.1723443999653682,None,758.6460543000139,759.1422836000565,760.141339700087,760.1255764000816,,,,,,,,,,,,,,,,,009,001,2025-04-30_22h40.46.475,Cued GoNogo Task,2024.2.4,60.05728263888077,2025-04-30 22h41.04.789034 +0200,
block/CondBlock2.xlsx,You are about to start a block of type 2 trials.,33,33,0,Go,Go,0.45,0.05,0.2,space,green,horizontal,space,274.06850210006814,None,space,1,0.09793140005785972,None,,,,0,1,1,1,0,33,33,33,760.141339700087,,,,,,,,,,,,,,,,760.1258753000293,760.1580259000184,760.8575488000643,760.8575488000643,761.3569585001096,761.3409139000578,761.3413916000864,761.3569585001096,761.8068447000114,762.0065437000012,762.0065437000012,762.1075024000602,space,1,0.09793140005785972,None,762.1107596000656,762.6227172000799,763.6218105000444,763.6059522000141,,,,,,,,,,,,,,,,,009,001,2025-04-30_22h40.46.475,Cued GoNogo Task,2024.2.4,60.05728263888077,2025-04-30 22h41.04.789034 +0200,
block/CondBlock2.xlsx,You are about to start a block of type 2 trials.,34,34,0,Go,Go,0.14,0.2,0.05,space,blue,vertical,space,274.06850210006814,None,space,1,0.1826931000687182,None,,,,0,1,1,1,0,34,34,34,763.6218105000444,,,,,,,,,,,,,,,,763.6061781001044,763.6218105000444,764.3212991000619,764.3212991000619,764.8208399000578,764.805552200065,764.8065890000435,764.8208399000578,764.9707767000655,765.1538880000589,765.1538880000589,765.3390836000908,space,1,0.1826931000687182,None,765.3434623000212,765.8533349001082,766.8524680000264,766.8367402000586,,,,,,,,,,,,,,,,,009,001,2025-04-30_22h40.46.475,Cued GoNogo Task,2024.2.4,60.05728263888077,2025-04-30 22h41.04.789034 +0200,
block/CondBlock2.xlsx,You are about to start a block of type 2 trials.,35,35,0,Go,Go,0.11,0.2,0.05,space,blue,vertical,space,274.06850210006814,None,space,1,0.1536608999595046,None,,,,0,1,1,1,0,35,35,35,766.8524680000264,,,,,,,,,,,,,,,,766.8369930000044,766.8524680000264,767.551946700085,767.551946700085,768.05147820001,768.0355999000603,768.0362686000299,768.05147820001,768.168209400028,768.3513278000755,768.3513278000755,768.5187845000764,space,1,0.1536608999595046,None,768.5215671000769,769.0340827000327,770.0333241000772,770.0175948000979,,,,,,,,,,,,,,,,,009,001,2025-04-30_22h40.46.475,Cued GoNogo Task,2024.2.4,60.05728263888077,2025-04-30 22h41.04.789034 +0200,
block/CondBlock2.xlsx,You are about to start a block of type 2 trials.,36,36,0,Go,Go,0.15,0.05,0.2,space,green,horizontal,space,274.06850210006814,None,space,1,0.13078799995128065,None,,,,0,1,1,1,0,36,36,36,770.0333241000772,,,,,,,,,,,,,,,,770.0178806000622,770.0333241000772,770.7326075000456,770.7326075000456,771.2323082000948,771.2163871000521,771.2169752001064,771.2323082000948,771.382123800111,771.5819882000796,771.5819882000796,771.7161454000743,space,1,0.13078799995128065,None,771.7193698000629,772.2314901000354,773.2306922000134,773.2149540000828,,,,,,,,,,,,,,,,,009,001,2025-04-30_22h40.46.475,Cued GoNogo Task,2024.2.4,60.05728263888077,2025-04-30 22h41.04.789034 +0200,
block/CondBlock2.xlsx,You are about to start a block of type 2 trials.,37,37,0,Go,Go,0.15,0.2,0.05,space,green,vertical,space,274.06850210006814,None,space,1,0.1258238999871537,None,,,,0,1,1,1,0,37,37,37,773.2306922000134,,,,,,,,,,,,,,,,773.2152347000083,773.2306922000134,773.9300865000114,773.9300865000114,774.4296377000865,774.4135200000601,774.4141230999958,774.4296377000865,774.5794548999984,774.7793595000403,774.7793595000403,774.9135174000403,space,1,0.1258238999871537,None,774.9164760001004,775.4288003999973,776.4280998000177,776.4119017000776,,,,,,,,,,,,,,,,,009,001,2025-04-30_22h40.46.475,Cued GoNogo Task,2024.2.4,60.05728263888077,2025-04-30 22h41.04.789034 +0200,
block/CondBlock2.xlsx,You are about to start a block of type 2 trials.,38,38,0,NoGo,NoGo,0.14,0.2,0.05,none,green,vertical,space,274.06850210006814,None,None,1,,,,,,0,1,1,1,0,38,38,38,776.4280998000177,,,,,,,,,,,,,,,,776.4121259000385,776.4280998000177,777.1274809000315,777.1274809000315,777.6269158000359,777.610821200069,777.6113480000058,777.6269158000359,777.776855400065,777.9601139000151,777.9601139000151,778.4435395000037,None,1,,,778.44586420001,778.9425993000623,779.9417147000786,779.9255567000946,778.4595433000941,778.4595433000941,,,,,,,,,,,,,,,009,001,2025-04-30_22h40.46.475,Cued GoNogo Task,2024.2.4,60.05728263888077,2025-04-30 22h41.04.789034 +0200,
block/CondBlock2.xlsx,You are about to start a block of type 2 trials.,39,39,0,Go,Go,0.46,0.2,0.05,space,green,vertical,space,274.06850210006814,None,space,1,0.13832239992916584,None,,,,0,1,1,1,0,39,39,39,779.9417147000786,,,,,,,,,,,,,,,,779.9258294000756,779.9584600999951,780.6578489000676,780.6578489000676,781.1574723001104,781.1416553000454,781.1425041001057,781.1574723001104,781.6239479000214,781.8068885999965,781.8068885999965,781.9577062000753,space,1,0.13832239992916584,None,781.9608313000062,782.4730404000729,783.4723019000376,783.4561998000136,,,,,,,,,,,,,,,,,009,001,2025-04-30_22h40.46.475,Cued GoNogo Task,2024.2.4,60.05728263888077,2025-04-30 22h41.04.789034 +0200,
block/CondBlock2.xlsx,You are about to start a block of type 2 trials.,40,40,0,Go,Go,0.5,0.05,0.2,space,blue,horizontal,space,274.06850210006814,None,space,1,0.0936128000030294,None,,,,0,1,1,1,0,40,40,40,783.4723019000376,,,,,,,,,,,,,,,,783.4564266999951,783.4723019000376,784.1716218000511,784.1716218000511,784.6711237001,784.6557307000039,784.6563307000324,784.6711237001,785.1708398000337,785.3706324000377,785.3706324000377,785.471909700078,space,1,0.0936128000030294,None,785.4756334000267,785.9870235000271,,786.9861928001046,,,,,,,,,,,,,,,,,009,001,2025-04-30_22h40.46.475,Cued GoNogo Task,2024.2.4,60.05728263888077,2025-04-30 22h41.04.789034 +0200,
block/CondBlock2.xlsx,You are about to start a block of type 2 trials.,41,41,0,Go,Go,0.16,0.05,0.2,space,green,horizontal,space,274.06850210006814,None,space,1,0.16188979998696595,None,,,,0,1,1,1,0,41,41,41,787.0027207999956,,,,,,,,,,,,,,,,786.9864256000146,787.0027207999956,787.6855085000861,787.7020430000266,788.1850125000346,788.1688444000902,788.169302900089,788.1850125000346,788.3515208000317,788.5346163000213,788.5346163000213,788.7022043000907,space,1,0.16188979998696595,None,788.704973300104,789.217406700016,790.2167051000288,790.2018971000798,,,,,,,,,,,,,,,,,009,001,2025-04-30_22h40.46.475,Cued GoNogo Task,2024.2.4,60.05728263888077,2025-04-30 22h41.04.789034 +0200,
