Block,blockMsg,thisN,thisTrialN,thisRepN,CueType,StimType,CueTime,Stim_Height,Stim_Width,CRESP,Color,Orientation,key_resp_2.keys,key_resp_2.rt,key_resp_2.duration,Key_Resp.keys,Key_Resp.corr,Key_Resp.rt,Key_Resp.duration,key_resp_3.keys,key_resp_3.rt,key_resp_3.duration,Blocks.thisRepN,Blocks.thisTrialN,Blocks.thisN,Blocks.thisIndex,Trials.thisRepN,Trials.thisTrialN,Trials.thisN,Trials.thisIndex,thisRow.t,notes,TaskIntro.started,fixation.started,key_resp.started,TaskIntro.stopped,key_resp.keys,key_resp.rt,key_resp.duration,BlockStart.started,BlockStart_Msg.started,key_resp_2.started,BlockStart.stopped,Blocks.key_resp_2.keys,Blocks.key_resp_2.rt,Blocks.key_resp_2.duration,Fixation.started,FixationPhase.started,Blank.started,FixationPhase.stopped,Blank.stopped,Fixation.stopped,Trial.started,Cue.started,Cue.stopped,GoNogo_Stim.started,Key_Resp.started,Trial.stopped,Trials.Key_Resp.keys,Trials.Key_Resp.corr,Trials.Key_Resp.rt,Trials.Key_Resp.duration,Feedback.started,Feedback_Present.started,Feedback.stopped,Feedback_Present.stopped,GoNogo_Stim.stopped,Key_Resp.stopped,BlockEnd.started,BlockEnd_Msg.started,key_resp_3.started,BlockEnd.stopped,Blocks.key_resp_3.keys,Blocks.key_resp_3.rt,Blocks.key_resp_3.duration,TaskEnd.started,ThankYou.started,key_resp_4.started,TaskEnd.stopped,key_resp_4.keys,key_resp_4.rt,key_resp_4.duration,participant,session,date,expName,psychopyVersion,frameRate,expStart,
,,,,,,,,,,,,,,,,,,,,,,,,,,,,,,,,,0.041152500023599714,0.0771748999832198,0.0771748999832198,11.821478400030173,space,11.664316900016274,None,,,,,,,,,,,,,,,,,,,,,,,,,,,,,,,,,,,,,,,,,,,,002,001,2025-04-27_17h55.46.012,Cued GoNogo Task,2024.2.4,60.02015476072989,2025-04-27 17h55.58.165496 +0200,
block/CondBlock1.xlsx,You are about to start a block of type 1 trials.,0,0,0,Go,Go,0.13,0.05,0.2,space,blue,horizontal,space,0.7809473000233993,None,space,1,0.27554719999898225,None,,,,0,0,0,0,0,0,0,0,12.698436699982267,,,,,,,,,11.829901900026016,11.832572199986316,11.832572199986316,12.624095799983479,space,0.7809473000233993,None,12.694906099990476,12.698436699982267,13.338564299978316,13.405140899994876,13.838151400035713,13.822386500018183,13.823221200029366,13.838151400035713,13.971264499996323,14.154503800033126,14.154503800033126,14.439131800027099,space,1,0.27554719999898225,None,14.449670400004834,14.953906900016591,15.953106100030709,,,,,,,,,,,,,,,,,,002,001,2025-04-27_17h55.46.012,Cued GoNogo Task,2024.2.4,60.02015476072989,2025-04-27 17h55.58.165496 +0200,
block/CondBlock1.xlsx,You are about to start a block of type 1 trials.,1,1,0,NoGo,NoGo,0.43,0.05,0.2,none,blue,horizontal,space,0.7809473000233993,None,space,0,0.29253580002114177,None,,,,0,0,0,0,0,1,1,1,15.96954130002996,,,,,,,,,,,,,,,,15.953559699992184,15.96954130002996,16.65246280003339,16.668959600036032,17.152000900008716,17.13627329998417,17.137092899996787,17.152000900008716,17.584845300007146,17.784744300006423,17.784744300006423,18.0857476000092,space,0,0.29253580002114177,None,18.092694799997844,18.600673699984327,19.583993899985217,19.599963299988303,,,,,,,,,,,,,,,,,002,001,2025-04-27_17h55.46.012,Cued GoNogo Task,2024.2.4,60.02015476072989,2025-04-27 17h55.58.165496 +0200,
block/CondBlock1.xlsx,You are about to start a block of type 1 trials.,2,2,0,Go,Go,0.12,0.2,0.05,space,blue,vertical,space,0.7809473000233993,None,space,1,0.35423609998542815,None,,,,0,0,0,0,0,2,2,2,19.599963299988303,,,,,,,,,,,,,,,,19.584296100016218,19.599963299988303,20.299231700017117,20.299231700017117,20.798897300031967,20.783170700015035,20.783848999999464,20.798897300031967,20.93211530003464,21.115408200013917,21.115408200013917,21.482883999997284,space,1,0.35423609998542815,None,21.487780300027225,21.997938200016506,22.98146400001133,22.997216499992646,,,,,,,,,,,,,,,,,002,001,2025-04-27_17h55.46.012,Cued GoNogo Task,2024.2.4,60.02015476072989,2025-04-27 17h55.58.165496 +0200,
block/CondBlock1.xlsx,You are about to start a block of type 1 trials.,3,3,0,NoGo,NoGo,0.18,0.2,0.05,none,green,vertical,space,0.7809473000233993,None,None,1,,,,,,0,0,0,0,0,3,3,3,22.997216499992646,,,,,,,,,,,,,,,,22.9818175000255,22.997216499992646,23.69649760000175,23.69649760000175,24.196146000002045,24.18005710002035,24.180657499993686,24.196146000002045,24.379295599996112,24.56253709999146,24.56253709999146,25.04652819997864,None,1,,,25.049110100022517,25.561803099990357,26.545440800022334,26.56089389999397,25.06213440001011,25.06213440001011,,,,,,,,,,,,,,,002,001,2025-04-27_17h55.46.012,Cued GoNogo Task,2024.2.4,60.02015476072989,2025-04-27 17h55.58.165496 +0200,
block/CondBlock1.xlsx,You are about to start a block of type 1 trials.,4,4,0,Go,Go,0.24,0.05,0.2,space,green,horizontal,space,0.7809473000233993,None,space,1,0.4048033999861218,None,,,,0,0,0,0,0,4,4,4,26.56089389999397,,,,,,,,,,,,,,,,26.545766700000968,26.56089389999397,27.260490100015886,27.260490100015886,27.759948900027666,27.74364170001354,27.744168400007766,27.759948900027666,28.00976190000074,28.192897400003858,28.192897400003858,28.610372000024654,space,1,0.4048033999861218,None,28.615460100001656,29.125481299997773,30.108569899981376,30.124581500014756,,,,,,,,,,,,,,,,,002,001,2025-04-27_17h55.46.012,Cued GoNogo Task,2024.2.4,60.02015476072989,2025-04-27 17h55.58.165496 +0200,
block/CondBlock1.xlsx,You are about to start a block of type 1 trials.,5,5,0,Go,Go,0.21,0.05,0.2,space,blue,horizontal,space,0.7809473000233993,None,space,1,0.3695114000001922,None,,,,0,0,0,0,0,5,5,5,30.124581500014756,,,,,,,,,,,,,,,,30.108875799982343,30.124581500014756,30.824092700029723,30.824092700029723,31.323679300025105,31.30757549998816,31.308152400015388,31.323679300025105,31.539980500005186,31.72336240002187,31.72336240002187,32.10752850002609,space,1,0.3695114000001922,None,32.11376029998064,32.622568399994634,33.60565240000142,33.62175140000181,,,,,,,,,,,,,,,,,002,001,2025-04-27_17h55.46.012,Cued GoNogo Task,2024.2.4,60.02015476072989,2025-04-27 17h55.58.165496 +0200,
block/CondBlock1.xlsx,You are about to start a block of type 1 trials.,6,6,0,Go,Go,0.11,0.2,0.05,space,blue,vertical,space,0.7809473000233993,None,space,1,0.35701640002662316,None,,,,0,0,0,0,0,6,6,6,33.62175140000181,,,,,,,,,,,,,,,,33.605903499992564,33.62175140000181,34.32118840003386,34.32118840003386,34.820676999981515,34.80473969999002,34.805335899989586,34.820676999981515,34.93733320001047,35.12047770002391,35.12047770002391,35.48795159999281,space,1,0.35701640002662316,None,35.49188340001274,36.003078199981246,36.98640749999322,37.00223179999739,,,,,,,,,,,,,,,,,002,001,2025-04-27_17h55.46.012,Cued GoNogo Task,2024.2.4,60.02015476072989,2025-04-27 17h55.58.165496 +0200,
block/CondBlock1.xlsx,You are about to start a block of type 1 trials.,7,7,0,Go,Go,0.15,0.2,0.05,space,blue,vertical,space,0.7809473000233993,None,space,1,0.3817826000158675,None,,,,0,0,0,0,0,7,7,7,37.00223179999739,,,,,,,,,,,,,,,,36.986682899994776,37.00223179999739,37.70159860001877,37.70159860001877,38.201413800008595,38.185201700020116,38.18576900003245,38.201413800008595,38.35122860001866,38.551118100003805,38.551118100003805,38.93536659999518,space,1,0.3817826000158675,None,38.941531000018585,39.45033449999755,40.43358150002314,40.44950470002368,,,,,,,,,,,,,,,,,002,001,2025-04-27_17h55.46.012,Cued GoNogo Task,2024.2.4,60.02015476072989,2025-04-27 17h55.58.165496 +0200,
block/CondBlock1.xlsx,You are about to start a block of type 1 trials.,8,8,0,NoGo,NoGo,0.3,0.05,0.2,none,blue,horizontal,space,0.7809473000233993,None,None,1,,,,,,0,0,0,0,0,8,8,8,40.44950470002368,,,,,,,,,,,,,,,,40.43394920002902,40.44950470002368,41.148829800018575,41.148829800018575,41.648407400003634,41.632537800003774,41.63313820003532,41.648407400003634,41.94820839999011,42.14819149998948,42.14819149998948,42.63194699998712,None,1,,,42.63499570003478,43.147377800021786,44.13065160001861,44.146463299985044,42.64766369998688,42.64766369998688,,,,,,,,,,,,,,,002,001,2025-04-27_17h55.46.012,Cued GoNogo Task,2024.2.4,60.02015476072989,2025-04-27 17h55.58.165496 +0200,
block/CondBlock1.xlsx,You are about to start a block of type 1 trials.,9,9,0,NoGo,NoGo,0.17,0.05,0.2,none,blue,horizontal,space,0.7809473000233993,None,space,0,0.30923519999487326,None,,,,0,0,0,0,0,9,9,9,44.146463299985044,,,,,,,,,,,,,,,,44.13103460002458,44.146463299985044,44.84579689998645,44.84579689998645,45.345311200013384,45.329474200028926,45.330075500009116,45.345311200013384,45.528535399993416,45.71188100002473,45.71188100002473,46.029628699994646,space,0,0.30923519999487326,None,46.03395020001335,46.544364600034896,47.527784100035205,47.54364699998405,,,,,,,,,,,,,,,,,002,001,2025-04-27_17h55.46.012,Cued GoNogo Task,2024.2.4,60.02015476072989,2025-04-27 17h55.58.165496 +0200,
block/CondBlock1.xlsx,You are about to start a block of type 1 trials.,10,10,0,NoGo,NoGo,0.26,0.2,0.05,none,green,vertical,space,0.7809473000233993,None,None,1,,,,,,0,0,0,0,0,10,10,10,47.54364699998405,,,,,,,,,,,,,,,,47.52810870000394,47.54364699998405,48.242952700005844,48.242952700005844,48.74266059999354,48.726819100033026,48.72751190001145,48.74266059999354,49.00916040001903,49.19237930001691,49.19237930001691,49.6756955999881,None,1,,,49.677645799994934,50.174748399993405,51.158021399984136,51.17381419998128,49.691757299995515,49.691757299995515,,,,,,,,,,,,,,,002,001,2025-04-27_17h55.46.012,Cued GoNogo Task,2024.2.4,60.02015476072989,2025-04-27 17h55.58.165496 +0200,
block/CondBlock1.xlsx,You are about to start a block of type 1 trials.,11,11,0,Go,Go,0.27,0.05,0.2,space,green,horizontal,space,0.7809473000233993,None,space,1,0.3332163000013679,None,,,,0,0,0,0,0,11,11,11,51.17381419998128,,,,,,,,,,,,,,,,51.15832510002656,51.19072930002585,51.89013449999038,51.89013449999038,52.38951890001772,52.373500999994576,52.37402380001731,52.38951890001772,52.67267390002962,52.85591330000898,52.85591330000898,53.19085780001478,space,1,0.3332163000013679,None,53.193788399978075,53.705271299986634,54.70439610001631,,,,,,,,,,,,,,,,,,002,001,2025-04-27_17h55.46.012,Cued GoNogo Task,2024.2.4,60.02015476072989,2025-04-27 17h55.58.165496 +0200,
block/CondBlock1.xlsx,You are about to start a block of type 1 trials.,12,12,0,Go,Go,0.16,0.2,0.05,space,green,vertical,space,0.7809473000233993,None,space,1,0.3604275999823585,None,,,,0,0,0,0,0,12,12,12,54.721103099989705,,,,,,,,,,,,,,,,54.70463769999333,54.721103099989705,55.403821900021285,55.4205185000319,55.90349910000805,55.8874331000261,55.8880780999898,55.90349910000805,56.0700441999943,56.25319550000131,56.25319550000131,56.62068100000033,space,1,0.3604275999823585,None,56.62456040002871,57.13560680003138,58.11904920003144,58.13502490002429,,,,,,,,,,,,,,,,,002,001,2025-04-27_17h55.46.012,Cued GoNogo Task,2024.2.4,60.02015476072989,2025-04-27 17h55.58.165496 +0200,
block/CondBlock1.xlsx,You are about to start a block of type 1 trials.,13,13,0,Go,Go,0.13,0.2,0.05,space,green,vertical,space,0.7809473000233993,None,space,1,0.41894000000320375,None,,,,0,0,0,0,0,13,13,13,58.13502490002429,,,,,,,,,,,,,,,,58.119315000018105,58.13502490002429,58.834352100035176,58.834352100035176,59.3338117999956,59.31821500003571,59.31901440001093,59.3338117999956,59.46710340003483,59.6503958000103,59.6503958000103,60.08491219999269,space,1,0.41894000000320375,None,60.08975250000367,60.59959840000374,61.58276509999996,61.59886810003081,,,,,,,,,,,,,,,,,002,001,2025-04-27_17h55.46.012,Cued GoNogo Task,2024.2.4,60.02015476072989,2025-04-27 17h55.58.165496 +0200,
block/CondBlock1.xlsx,You are about to start a block of type 1 trials.,14,14,0,Go,Go,0.12,0.05,0.2,space,blue,horizontal,space,0.7809473000233993,None,space,1,0.3801810999866575,None,,,,0,0,0,0,0,14,14,14,61.59886810003081,,,,,,,,,,,,,,,,61.5830496000126,61.59886810003081,62.2981662999955,62.2981662999955,62.79774940002244,62.78215500002261,62.7831073999987,62.79774940002244,62.93102220003493,63.114325600035954,63.114325600035954,63.498386799998116,space,1,0.3801810999866575,None,63.502565500035416,64.01331310003297,64.99716010002885,65.01251959998626,,,,,,,,,,,,,,,,,002,001,2025-04-27_17h55.46.012,Cued GoNogo Task,2024.2.4,60.02015476072989,2025-04-27 17h55.58.165496 +0200,
block/CondBlock1.xlsx,You are about to start a block of type 1 trials.,15,15,0,Go,Go,0.45,0.2,0.05,space,blue,vertical,space,0.7809473000233993,None,space,1,0.3681699999724515,None,,,,0,0,0,0,0,15,15,15,65.01251959998626,,,,,,,,,,,,,,,,64.99757850001333,65.01251959998626,65.71204030001536,65.71204030001536,66.21169199998258,66.19593200000236,66.19662479998078,66.21169199998258,66.66117550001945,66.86122600000817,66.86122600000817,67.2455362000037,space,1,0.3681699999724515,None,67.25044340000022,67.76035390002653,68.74364860000787,68.75940570002422,,,,,,,,,,,,,,,,,002,001,2025-04-27_17h55.46.012,Cued GoNogo Task,2024.2.4,60.02015476072989,2025-04-27 17h55.58.165496 +0200,
block/CondBlock1.xlsx,You are about to start a block of type 1 trials.,16,16,0,NoGo,NoGo,0.14,0.2,0.05,none,green,vertical,space,0.7809473000233993,None,None,1,,,,,,0,0,0,0,0,16,16,16,68.75940570002422,,,,,,,,,,,,,,,,68.74391610000748,68.75940570002422,69.45884999999544,69.45884999999544,69.95846559997881,69.94248189998325,69.94306309998501,69.95846559997881,70.10827660001814,70.29156079998938,70.29156079998938,70.77582640002947,None,1,,,70.77947240002686,71.2907243000227,72.27379010000732,72.28991699998733,70.79119120002724,70.79119120002724,,,,,,,,,,,,,,,002,001,2025-04-27_17h55.46.012,Cued GoNogo Task,2024.2.4,60.02015476072989,2025-04-27 17h55.58.165496 +0200,
block/CondBlock1.xlsx,You are about to start a block of type 1 trials.,17,17,0,Go,Go,0.12,0.05,0.2,space,green,horizontal,space,0.7809473000233993,None,space,1,0.36003370000980794,None,,,,0,0,0,0,0,17,17,17,72.28991699998733,,,,,,,,,,,,,,,,72.27404580003349,72.28991699998733,72.98929800000042,72.98929800000042,73.48897120001493,73.47330599999987,73.47408379998524,73.48897120001493,73.62225040001795,73.80536260001827,73.80536260001827,74.1729019000195,space,1,0.36003370000980794,None,74.1772873000009,74.68808520003222,75.67136750003556,75.68723059998592,,,,,,,,,,,,,,,,,002,001,2025-04-27_17h55.46.012,Cued GoNogo Task,2024.2.4,60.02015476072989,2025-04-27 17h55.58.165496 +0200,
block/CondBlock1.xlsx,You are about to start a block of type 1 trials.,18,18,0,Go,Go,0.47,0.2,0.05,space,blue,vertical,space,0.7809473000233993,None,space,1,0.3967370999744162,None,,,,0,0,0,0,0,18,18,18,75.68723059998592,,,,,,,,,,,,,,,,75.67166280001402,75.68723059998592,76.38652080000611,76.38652080000611,76.88612969999667,76.8704031999805,76.87116680003237,76.88612969999667,77.36910539999371,77.55228890001308,77.55228890001308,77.95341339998413,space,1,0.3967370999744162,None,77.95821469998918,78.46811720001278,79.4514389000251,79.46741400001338,,,,,,,,,,,,,,,,,002,001,2025-04-27_17h55.46.012,Cued GoNogo Task,2024.2.4,60.02015476072989,2025-04-27 17h55.58.165496 +0200,
block/CondBlock1.xlsx,You are about to start a block of type 1 trials.,19,19,0,Go,Go,0.18,0.2,0.05,space,green,vertical,space,0.7809473000233993,None,space,1,0.34004989999812096,None,,,,0,0,0,0,0,19,19,19,79.46741400001338,,,,,,,,,,,,,,,,79.45176369999535,79.46741400001338,80.16689870000118,80.16689870000118,80.66639060003217,80.65045710001141,80.65111390000675,80.66639060003217,80.84945949999383,81.03281340003014,81.03281340003014,81.38349169999128,space,1,0.34004989999812096,None,81.38807699998142,81.89867740002228,82.88238239998464,82.8979303999804,,,,,,,,,,,,,,,,,002,001,2025-04-27_17h55.46.012,Cued GoNogo Task,2024.2.4,60.02015476072989,2025-04-27 17h55.58.165496 +0200,
block/CondBlock1.xlsx,You are about to start a block of type 1 trials.,20,20,0,Go,Go,0.19,0.2,0.05,space,blue,vertical,space,0.7809473000233993,None,space,1,0.35858070000540465,None,,,,0,0,0,0,0,20,20,20,82.8979303999804,,,,,,,,,,,,,,,,82.88273110002046,82.8979303999804,83.59730790002504,83.59730790002504,84.09701239998685,84.08146760001546,84.08242160000373,84.09701239998685,84.29675809998298,84.47994839999592,84.47994839999592,84.8479449999868,space,1,0.35858070000540465,None,84.85207730002003,85.36252979998244,86.34576549998019,86.36164279998047,,,,,,,,,,,,,,,,,002,001,2025-04-27_17h55.46.012,Cued GoNogo Task,2024.2.4,60.02015476072989,2025-04-27 17h55.58.165496 +0200,
block/CondBlock1.xlsx,You are about to start a block of type 1 trials.,21,21,0,Go,Go,0.14,0.2,0.05,space,blue,vertical,space,0.7809473000233993,None,space,1,0.3676934000104666,None,,,,0,0,0,0,0,21,21,21,86.36164279998047,,,,,,,,,,,,,,,,86.3459629000281,86.36164279998047,87.0612017000094,87.0612017000094,87.56066840002313,87.54493239999283,87.5455767000094,87.56066840002313,87.71065449999878,87.89374660002068,87.89374660002068,88.27793729997938,space,1,0.3676934000104666,None,88.28184020001208,88.79308420000598,89.77654470002744,89.79235310002696,,,,,,,,,,,,,,,,,002,001,2025-04-27_17h55.46.012,Cued GoNogo Task,2024.2.4,60.02015476072989,2025-04-27 17h55.58.165496 +0200,
block/CondBlock1.xlsx,You are about to start a block of type 1 trials.,22,22,0,Go,Go,0.15,0.2,0.05,space,blue,vertical,space,0.7809473000233993,None,space,1,0.4005397000000812,None,,,,0,0,0,0,0,22,22,22,89.79235310002696,,,,,,,,,,,,,,,,89.77690350002376,89.79235310002696,90.49161139997886,90.49161139997886,90.99122510000598,90.97508810000727,90.97560930001782,90.99122510000598,91.14132490003249,91.3410118999891,91.3410118999891,91.75832339999033,space,1,0.4005397000000812,None,91.76294630003395,92.27354010002455,93.2568203000119,93.27263850002782,,,,,,,,,,,,,,,,,002,001,2025-04-27_17h55.46.012,Cued GoNogo Task,2024.2.4,60.02015476072989,2025-04-27 17h55.58.165496 +0200,
block/CondBlock1.xlsx,You are about to start a block of type 1 trials.,23,23,0,Go,Go,0.23,0.05,0.2,space,green,horizontal,space,0.7809473000233993,None,space,1,0.31719229998998344,None,,,,0,0,0,0,0,23,23,23,93.27263850002782,,,,,,,,,,,,,,,,93.2572195000248,93.27263850002782,93.97201889997814,93.97201889997814,94.47169440001016,94.4556604999816,94.45622320001712,94.47169440001016,94.7047145999968,94.88816470000893,94.88816470000893,95.22234199999366,space,1,0.31719229998998344,None,95.2271599000087,95.73715469997842,96.720655800018,96.73646949999966,,,,,,,,,,,,,,,,,002,001,2025-04-27_17h55.46.012,Cued GoNogo Task,2024.2.4,60.02015476072989,2025-04-27 17h55.58.165496 +0200,
block/CondBlock1.xlsx,You are about to start a block of type 1 trials.,24,24,0,Go,Go,0.2,0.2,0.05,space,blue,vertical,space,0.7809473000233993,None,space,1,0.38994799996726215,None,,,,0,0,0,0,0,24,24,24,96.73646949999966,,,,,,,,,,,,,,,,96.72093170002336,96.73646949999966,97.43582130002324,97.43582130002324,97.9356244999799,97.9196488999878,97.9202546000015,97.9356244999799,98.13568920001853,98.33530380000593,98.33530380000593,98.73588460002793,space,1,0.38994799996726215,None,98.74082669999916,99.2511212999816,100.23444700002437,100.25027070002398,,,,,,,,,,,,,,,,,002,001,2025-04-27_17h55.46.012,Cued GoNogo Task,2024.2.4,60.02015476072989,2025-04-27 17h55.58.165496 +0200,
block/CondBlock1.xlsx,You are about to start a block of type 1 trials.,25,25,0,Go,Go,0.15,0.2,0.05,space,blue,vertical,space,0.7809473000233993,None,space,1,0.18178420001640916,None,,,,0,0,0,0,0,25,25,25,100.25027070002398,,,,,,,,,,,,,,,,100.23472569999285,100.25027070002398,100.94980589998886,100.94980589998886,101.44909030001145,101.43320520000998,101.43367950001266,101.44909030001145,101.59921210003085,101.79898209997918,101.79898209997918,101.98400330002187,space,1,0.18178420001640916,None,101.98816980002448,102.4984861999983,103.48173430003226,103.49765640002443,,,,,,,,,,,,,,,,,002,001,2025-04-27_17h55.46.012,Cued GoNogo Task,2024.2.4,60.02015476072989,2025-04-27 17h55.58.165496 +0200,
block/CondBlock1.xlsx,You are about to start a block of type 1 trials.,26,26,0,NoGo,NoGo,0.2,0.2,0.05,none,blue,vertical,space,0.7809473000233993,None,space,0,0.17217479995451868,None,,,,0,0,0,0,0,26,26,26,103.49765640002443,,,,,,,,,,,,,,,,103.48200160003034,103.49765640002443,104.19706249999581,104.19706249999581,104.69658200000413,104.68104130000575,104.68180550000397,104.69658200000413,104.89642449998064,105.09655940002995,105.09655940002995,105.28050829999847,space,0,0.17217479995451868,None,105.28423140000086,105.7957797999843,106.79515710001579,,,,,,,,,,,,,,,,,,002,001,2025-04-27_17h55.46.012,Cued GoNogo Task,2024.2.4,60.02015476072989,2025-04-27 17h55.58.165496 +0200,
block/CondBlock1.xlsx,You are about to start a block of type 1 trials.,27,27,0,Go,Go,0.29,0.05,0.2,space,green,horizontal,space,0.7809473000233993,None,space,1,0.2650904000038281,None,,,,0,0,0,0,0,27,27,27,106.81141820002813,,,,,,,,,,,,,,,,106.79543519997969,106.81141820002813,107.49433900002623,107.51099630002864,107.9940065999981,107.97804710001219,107.97876329999417,107.9940065999981,108.29353309998987,108.47690910001984,108.47690910001984,108.74513450002996,space,1,0.2650904000038281,None,108.75050700001884,109.25952830002643,110.24277220002841,110.25873729999876,,,,,,,,,,,,,,,,,002,001,2025-04-27_17h55.46.012,Cued GoNogo Task,2024.2.4,60.02015476072989,2025-04-27 17h55.58.165496 +0200,
block/CondBlock1.xlsx,You are about to start a block of type 1 trials.,28,28,0,Go,Go,0.24,0.2,0.05,space,blue,vertical,space,0.7809473000233993,None,space,1,0.2667447999701835,None,,,,0,0,0,0,0,28,28,28,110.25873729999876,,,,,,,,,,,,,,,,110.24303300003521,110.25873729999876,110.95801719999872,110.95801719999872,111.45785780000733,111.44194019999122,111.44267880002735,111.45785780000733,111.70749090000754,111.89081020001322,111.89081020001322,112.16009140003007,space,1,0.2667447999701835,None,112.16498649999266,112.67335150000872,113.656522699981,113.67263759998605,,,,,,,,,,,,,,,,,002,001,2025-04-27_17h55.46.012,Cued GoNogo Task,2024.2.4,60.02015476072989,2025-04-27 17h55.58.165496 +0200,
block/CondBlock1.xlsx,You are about to start a block of type 1 trials.,29,29,0,Go,Go,0.15,0.05,0.2,space,green,horizontal,space,0.7809473000233993,None,space,1,0.18366139999125153,None,,,,0,0,0,0,0,29,29,29,113.67263759998605,,,,,,,,,,,,,,,,113.65676690003602,113.67263759998605,114.37204330001259,114.37204330001259,114.87179380003363,114.85586800001329,114.85685959999682,114.87179380003363,115.02140640001744,115.22136050002882,115.22136050002882,115.42233909998322,space,1,0.18366139999125153,None,115.42665280000074,115.93740180000896,116.9208313000272,116.9364946000278,,,,,,,,,,,,,,,,,002,001,2025-04-27_17h55.46.012,Cued GoNogo Task,2024.2.4,60.02015476072989,2025-04-27 17h55.58.165496 +0200,
block/CondBlock1.xlsx,You are about to start a block of type 1 trials.,30,30,0,Go,Go,0.23,0.2,0.05,space,green,vertical,space,0.7809473000233993,None,space,1,0.30943259998457506,None,,,,0,0,0,0,0,30,30,30,116.9364946000278,,,,,,,,,,,,,,,,116.92118040000787,116.9364946000278,117.63596990000224,117.63596990000224,118.13543040002696,118.11946369998623,118.11995269998442,118.13543040002696,118.36857180000516,118.5516855000169,118.5516855000169,118.86932840000372,space,1,0.30943259998457506,None,118.8730887999991,119.38453049998498,120.36789809999755,120.38379400002304,,,,,,,,,,,,,,,,,002,001,2025-04-27_17h55.46.012,Cued GoNogo Task,2024.2.4,60.02015476072989,2025-04-27 17h55.58.165496 +0200,
block/CondBlock1.xlsx,You are about to start a block of type 1 trials.,31,31,0,Go,Go,0.28,0.2,0.05,space,green,vertical,space,0.7809473000233993,None,space,1,0.25184109999099746,None,,,,0,0,0,0,0,31,31,31,120.38379400002304,,,,,,,,,,,,,,,,120.36816830001771,120.38379400002304,121.08313310000813,121.08313310000813,121.5827443000162,121.56654020003043,121.5670690999832,121.5827443000162,121.86580919998232,122.04895480000414,122.04895480000414,122.31666980002774,space,1,0.25184109999099746,None,122.32152970001334,122.83176979998825,123.81521460000658,123.83086689998163,,,,,,,,,,,,,,,,,002,001,2025-04-27_17h55.46.012,Cued GoNogo Task,2024.2.4,60.02015476072989,2025-04-27 17h55.58.165496 +0200,
block/CondBlock1.xlsx,You are about to start a block of type 1 trials.,32,32,0,Go,Go,0.19,0.2,0.05,space,green,vertical,space,0.7809473000233993,None,space,1,0.2562883999780752,None,,,,0,0,0,0,0,32,32,32,123.83086689998163,,,,,,,,,,,,,,,,123.815509499982,123.83086689998163,124.53039999998873,124.53039999998873,125.03008679999039,125.01425990002463,125.0149367999984,125.03008679999039,125.22967560001416,125.41288820002228,125.41288820002228,125.68073600000935,space,1,0.2562883999780752,None,125.68548550002743,126.19564099999843,127.17893250001362,127.19503479998093,,,,,,,,,,,,,,,,,002,001,2025-04-27_17h55.46.012,Cued GoNogo Task,2024.2.4,60.02015476072989,2025-04-27 17h55.58.165496 +0200,
block/CondBlock1.xlsx,You are about to start a block of type 1 trials.,33,33,0,Go,Go,0.12,0.2,0.05,space,green,vertical,space,0.7809473000233993,None,space,1,0.3753869999782182,None,,,,0,0,0,0,0,33,33,33,127.19503479998093,,,,,,,,,,,,,,,,127.17933569999877,127.19503479998093,127.89425020001363,127.89425020001363,128.39359100000001,128.37800530000823,128.37889960000757,128.39359100000001,128.52704529999755,128.7101885000011,128.7101885000011,129.09440450003603,space,1,0.3753869999782182,None,129.09869770001387,129.60949310002616,130.59269730001688,130.608722999983,,,,,,,,,,,,,,,,,002,001,2025-04-27_17h55.46.012,Cued GoNogo Task,2024.2.4,60.02015476072989,2025-04-27 17h55.58.165496 +0200,
block/CondBlock1.xlsx,You are about to start a block of type 1 trials.,34,34,0,Go,Go,0.18,0.2,0.05,space,blue,vertical,space,0.7809473000233993,None,space,1,0.27935189998243004,None,,,,0,0,0,0,0,34,34,34,130.608722999983,,,,,,,,,,,,,,,,130.59304100001464,130.608722999983,131.3082089999807,131.3082089999807,131.80774610000663,131.79182320000837,131.79254589998163,131.80774610000663,131.99080810003215,132.1739891000325,132.1739891000325,132.4586162000196,space,1,0.27935189998243004,None,132.46333080000477,132.97329150000587,133.9568084999919,133.972467900021,,,,,,,,,,,,,,,,,002,001,2025-04-27_17h55.46.012,Cued GoNogo Task,2024.2.4,60.02015476072989,2025-04-27 17h55.58.165496 +0200,
block/CondBlock1.xlsx,You are about to start a block of type 1 trials.,35,35,0,Go,Go,0.21,0.2,0.05,space,blue,vertical,space,0.7809473000233993,None,space,1,0.2991929000127129,None,,,,0,0,0,0,0,35,35,35,133.972467900021,,,,,,,,,,,,,,,,133.95708160003414,133.972467900021,134.6718966999906,134.6718966999906,135.17131250002421,135.15555110003334,135.15615510003408,135.17131250002421,135.38776950002648,135.57106159999967,135.57106159999967,135.87212120002368,space,1,0.2991929000127129,None,135.87498570000753,136.38705369998934,137.37029270001221,137.3862647000351,,,,,,,,,,,,,,,,,002,001,2025-04-27_17h55.46.012,Cued GoNogo Task,2024.2.4,60.02015476072989,2025-04-27 17h55.58.165496 +0200,
block/CondBlock1.xlsx,You are about to start a block of type 1 trials.,36,36,0,Go,Go,0.2,0.2,0.05,space,green,vertical,space,0.7809473000233993,None,space,1,0.27665389998583123,None,,,,0,0,0,0,0,36,36,36,137.3862647000351,,,,,,,,,,,,,,,,137.37045789998956,137.3862647000351,138.0857615999994,138.0857615999994,138.58556430001045,138.56922360003227,138.56982909998624,138.58556430001045,138.78541529999347,138.98502989998087,138.98502989998087,139.2694575000205,space,1,0.27665389998583123,None,139.27327390003484,139.78447020001477,140.76745819998905,140.7837187999976,,,,,,,,,,,,,,,,,002,001,2025-04-27_17h55.46.012,Cued GoNogo Task,2024.2.4,60.02015476072989,2025-04-27 17h55.58.165496 +0200,
block/CondBlock1.xlsx,You are about to start a block of type 1 trials.,37,37,0,Go,Go,0.45,0.05,0.2,space,blue,horizontal,space,0.7809473000233993,None,space,1,0.2375948000117205,None,,,,0,0,0,0,0,37,37,37,140.7837187999976,,,,,,,,,,,,,,,,140.76768280001124,140.7837187999976,141.48296719999053,141.48296719999053,141.9827556000091,141.96676149999257,141.96744540001964,141.9827556000091,142.43226979998872,142.63205690000905,142.63205690000905,142.88291980000213,space,1,0.2375948000117205,None,142.88726550003048,143.39837110001827,144.381258599984,144.39740379998693,,,,,,,,,,,,,,,,,002,001,2025-04-27_17h55.46.012,Cued GoNogo Task,2024.2.4,60.02015476072989,2025-04-27 17h55.58.165496 +0200,
block/CondBlock1.xlsx,You are about to start a block of type 1 trials.,38,38,0,Go,Go,0.13,0.05,0.2,space,blue,horizontal,space,0.7809473000233993,None,space,1,0.3567258999682963,None,,,,0,0,0,0,0,38,38,38,144.39740379998693,,,,,,,,,,,,,,,,144.38150950003183,144.39740379998693,145.09686410002178,145.09686410002178,145.59624739998253,145.58139950002078,145.58238039998105,145.59624739998253,145.72963010001695,145.91267669998342,145.91267669998342,146.27999760000966,space,1,0.3567258999682963,None,146.28375130001223,146.79542859998764,147.77858680003555,147.7945131000015,,,,,,,,,,,,,,,,,002,001,2025-04-27_17h55.46.012,Cued GoNogo Task,2024.2.4,60.02015476072989,2025-04-27 17h55.58.165496 +0200,
block/CondBlock1.xlsx,You are about to start a block of type 1 trials.,39,39,0,Go,Go,0.46,0.2,0.05,space,blue,vertical,space,0.7809473000233993,None,space,1,0.30665600002976134,None,,,,0,0,0,0,0,39,39,39,147.7945131000015,,,,,,,,,,,,,,,,147.77886180003406,147.7945131000015,148.49377960001584,148.49377960001584,148.99349920003442,148.9776644000085,148.9782744999975,148.99349920003442,149.45982350001577,149.64298890001373,149.64298890001373,149.96033889998216,space,1,0.30665600002976134,None,149.9639113000012,150.47576030000346,151.45876710000448,151.47483520000242,,,,,,,,,,,,,,,,,002,001,2025-04-27_17h55.46.012,Cued GoNogo Task,2024.2.4,60.02015476072989,2025-04-27 17h55.58.165496 +0200,
block/CondBlock1.xlsx,You are about to start a block of type 1 trials.,40,40,0,Go,Go,0.29,0.2,0.05,space,blue,vertical,space,0.7809473000233993,None,space,1,0.4003491000039503,None,,,,0,0,0,0,0,40,40,40,151.47483520000242,,,,,,,,,,,,,,,,151.45902000000933,151.47483520000242,152.1742416000343,152.1742416000343,152.67368459998397,152.65816709998762,152.65896279999288,152.67368459998397,152.9737693000352,153.15673420001986,153.15673420001986,153.57424009998795,space,1,0.4003491000039503,None,153.5783255000133,154.0895818999852,155.08869250002317,,,,,,,,,,,,,,,,,,002,001,2025-04-27_17h55.46.012,Cued GoNogo Task,2024.2.4,60.02015476072989,2025-04-27 17h55.58.165496 +0200,
block/CondBlock1.xlsx,You are about to start a block of type 1 trials.,41,41,0,Go,Go,0.22,0.2,0.05,space,blue,vertical,space,0.7809473000233993,None,space,1,0.3989016999839805,None,,,,0,0,0,0,0,41,41,41,155.10524020000594,,,,,,,,,,,,,,,,155.08894970000256,155.10524020000594,155.7879875000217,155.8046085999813,156.28750690002926,156.27155980002135,156.27214030001778,156.28750690002926,156.52060659998097,156.70383150002453,156.70383150002453,157.10547710000537,space,1,0.3989016999839805,None,157.10914100002265,157.61991200002376,158.6033984000096,158.61888130003354,,,,,,,,,,,,,,,,,002,001,2025-04-27_17h55.46.012,Cued GoNogo Task,2024.2.4,60.02015476072989,2025-04-27 17h55.58.165496 +0200,
block/CondBlock1.xlsx,You are about to start a block of type 1 trials.,42,42,0,Go,Go,0.49,0.2,0.05,space,blue,vertical,space,0.7809473000233993,None,space,1,0.3846019000047818,None,,,,0,0,0,0,0,42,42,42,158.61888130003354,,,,,,,,,,,,,,,,158.60365140001522,158.61888130003354,159.31835560000036,159.31835560000036,159.81802360003348,159.8019675000105,159.8026340000215,159.81802360003348,160.317534300033,160.5008100999985,160.5008100999985,160.90167480002856,space,1,0.3846019000047818,None,160.9070469000144,161.41672700003255,162.39984460000414,162.41570790001424,,,,,,,,,,,,,,,,,002,001,2025-04-27_17h55.46.012,Cued GoNogo Task,2024.2.4,60.02015476072989,2025-04-27 17h55.58.165496 +0200,
block/CondBlock1.xlsx,You are about to start a block of type 1 trials.,43,43,0,Go,Go,0.2,0.2,0.05,space,blue,vertical,space,0.7809473000233993,None,space,1,0.3029530000058003,None,,,,0,0,0,0,0,43,43,43,162.41570790001424,,,,,,,,,,,,,,,,162.4000897000078,162.41570790001424,163.115115099994,163.115115099994,163.61485650000395,163.5989747000276,163.59954630001448,163.61485650000395,163.81462279998232,164.01446969999233,164.01446969999233,164.3322874000296,space,1,0.3029530000058003,None,164.33656590001192,164.84727090003435,165.83078710001428,165.84627590002492,,,,,,,,,,,,,,,,,002,001,2025-04-27_17h55.46.012,Cued GoNogo Task,2024.2.4,60.02015476072989,2025-04-27 17h55.58.165496 +0200,
block/CondBlock1.xlsx,You are about to start a block of type 1 trials.,44,44,0,Go,Go,0.3,0.05,0.2,space,blue,horizontal,space,0.7809473000233993,None,space,1,0.34062699996866286,None,,,,0,0,0,0,0,44,44,44,165.84627590002492,,,,,,,,,,,,,,,,165.83114480000222,165.84627590002492,166.54568749997998,166.54568749997998,167.0453785000136,167.02928580000298,167.02984189998824,167.0453785000136,167.34506160003366,167.5449784999946,167.5449784999946,167.89569079998182,space,1,0.34062699996866286,None,167.8993370999815,168.41089040000224,169.39438210002845,169.41008990001865,,,,,,,,,,,,,,,,,002,001,2025-04-27_17h55.46.012,Cued GoNogo Task,2024.2.4,60.02015476072989,2025-04-27 17h55.58.165496 +0200,
block/CondBlock1.xlsx,You are about to start a block of type 1 trials.,45,45,0,NoGo,NoGo,0.21,0.05,0.2,none,green,horizontal,space,0.7809473000233993,None,None,1,,,,,,0,0,0,0,0,45,45,45,169.41008990001865,,,,,,,,,,,,,,,,169.3946838999982,169.41008990001865,170.1094164000242,170.1094164000242,170.6089812000282,170.59323990001576,170.59389040002134,170.6089812000282,170.8255419000052,171.00874489999842,171.00874489999842,171.4925407000119,None,1,,,171.49587580002844,172.00794169999426,172.99106790003134,173.00699730002088,171.50829690002138,171.50829690002138,,,,,,,,,,,,,,,002,001,2025-04-27_17h55.46.012,Cued GoNogo Task,2024.2.4,60.02015476072989,2025-04-27 17h55.58.165496 +0200,
block/CondBlock1.xlsx,You are about to start a block of type 1 trials.,46,46,0,NoGo,NoGo,0.45,0.05,0.2,none,blue,horizontal,space,0.7809473000233993,None,space,0,0.2146470000152476,None,,,,0,0,0,0,0,46,46,46,173.00699730002088,,,,,,,,,,,,,,,,172.99135560001014,173.00699730002088,173.70648190000793,173.70648190000793,174.20615199999884,174.19037939998088,174.19106019998435,174.20615199999884,174.6555957000237,174.85567870002706,174.85567870002706,175.07381450000685,space,0,0.2146470000152476,None,175.07881869998528,175.58836779999547,176.57153150002705,176.58748019998893,,,,,,,,,,,,,,,,,002,001,2025-04-27_17h55.46.012,Cued GoNogo Task,2024.2.4,60.02015476072989,2025-04-27 17h55.58.165496 +0200,
block/CondBlock1.xlsx,You are about to start a block of type 1 trials.,47,47,0,Go,Go,0.24,0.05,0.2,space,green,horizontal,space,0.7809473000233993,None,space,1,0.3863978000008501,None,,,,0,0,0,0,0,47,47,47,176.58748019998893,,,,,,,,,,,,,,,,176.57185050001135,176.58748019998893,177.28692590002902,177.28692590002902,177.7866764999926,177.77068030001828,177.7712571999873,177.7866764999926,178.03625400003511,178.2194928000099,178.2194928000099,178.6205817000009,space,1,0.3863978000008501,None,178.62490880000405,179.135416300036,180.1186599000357,180.13456239999505,,,,,,,,,,,,,,,,,002,001,2025-04-27_17h55.46.012,Cued GoNogo Task,2024.2.4,60.02015476072989,2025-04-27 17h55.58.165496 +0200,
block/CondBlock1.xlsx,You are about to start a block of type 1 trials.,48,48,0,NoGo,NoGo,0.15,0.2,0.05,none,blue,vertical,space,0.7809473000233993,None,space,0,0.33070130000123754,None,,,,0,0,0,0,0,48,48,48,180.13456239999505,,,,,,,,,,,,,,,,180.11896950000664,180.13456239999505,180.8341295000282,180.8341295000282,181.333461000002,181.3175352999824,181.31809760001488,181.333461000002,181.4835044000065,181.6833425000077,181.6833425000077,182.0173093000194,space,0,0.33070130000123754,None,182.02147540001897,182.5327108000056,183.51632470003096,183.53191120002884,,,,,,,,,,,,,,,,,002,001,2025-04-27_17h55.46.012,Cued GoNogo Task,2024.2.4,60.02015476072989,2025-04-27 17h55.58.165496 +0200,
block/CondBlock1.xlsx,You are about to start a block of type 1 trials.,49,49,0,Go,Go,0.12,0.05,0.2,space,blue,horizontal,space,0.7809473000233993,None,space,1,0.3586561999982223,None,,,,0,0,0,0,0,49,49,49,183.53191120002884,,,,,,,,,,,,,,,,183.516695600003,183.53191120002884,184.23117540002568,184.23117540002568,184.730855300033,184.71476599999005,184.7152815000154,184.730855300033,184.86396029999014,185.04723450000165,185.04723450000165,185.41478729998926,space,1,0.3586561999982223,None,185.41868529998465,185.9298909000354,186.91305829997873,186.9288179000141,,,,,,,,,,,,,,,,,002,001,2025-04-27_17h55.46.012,Cued GoNogo Task,2024.2.4,60.02015476072989,2025-04-27 17h55.58.165496 +0200,
block/CondBlock1.xlsx,You are about to start a block of type 1 trials.,50,50,0,Go,Go,0.22,0.2,0.05,space,green,vertical,space,0.7809473000233993,None,space,1,0.3653205999871716,None,,,,0,0,0,0,0,50,50,50,186.9288179000141,,,,,,,,,,,,,,,,186.91337770002428,186.9288179000141,187.6284151999862,187.6284151999862,188.12804189999588,188.11187850002898,188.11242469999706,188.12804189999588,188.36102020001272,188.54430180002237,188.54430180002237,188.91177230002359,space,1,0.3653205999871716,None,188.91500899998937,189.42702870001085,190.40997710003285,190.426145000034,,,,,,,,,,,,,,,,,002,001,2025-04-27_17h55.46.012,Cued GoNogo Task,2024.2.4,60.02015476072989,2025-04-27 17h55.58.165496 +0200,
block/CondBlock1.xlsx,You are about to start a block of type 1 trials.,51,51,0,Go,Go,0.28,0.05,0.2,space,green,horizontal,space,0.7809473000233993,None,space,1,0.35456870001507923,None,,,,0,0,0,0,0,51,51,51,190.426145000034,,,,,,,,,,,,,,,,190.41018800000893,190.426145000034,191.1253727999865,191.1253727999865,191.62503559998004,191.60937469999772,191.61012199998368,191.62503559998004,191.90815490001114,192.0913331999909,192.0913331999909,192.45891909999773,space,1,0.35456870001507923,None,192.46274510002695,192.9740064999787,193.9576126000029,193.9733520000009,,,,,,,,,,,,,,,,,002,001,2025-04-27_17h55.46.012,Cued GoNogo Task,2024.2.4,60.02015476072989,2025-04-27 17h55.58.165496 +0200,
block/CondBlock1.xlsx,You are about to start a block of type 1 trials.,52,52,0,Go,Go,0.23,0.2,0.05,space,green,vertical,space,0.7809473000233993,None,space,1,0.2820043000392616,None,,,,0,0,0,0,0,52,52,52,193.9733520000009,,,,,,,,,,,,,,,,193.9580509000225,193.9733520000009,194.67247180000413,194.67247180000413,195.1721799999941,195.15618719998747,195.15686899999855,195.1721799999941,195.4055626000045,195.58847790001892,195.58847790001892,195.8740121999872,space,1,0.2820043000392616,None,195.87893840001198,196.38774580002064,197.37135849997867,197.38699700002326,,,,,,,,,,,,,,,,,002,001,2025-04-27_17h55.46.012,Cued GoNogo Task,2024.2.4,60.02015476072989,2025-04-27 17h55.58.165496 +0200,
block/CondBlock1.xlsx,You are about to start a block of type 1 trials.,53,53,0,Go,Go,0.22,0.05,0.2,space,green,horizontal,space,0.7809473000233993,None,space,1,0.35512459999881685,None,,,,0,0,0,0,0,53,53,53,197.38699700002326,,,,,,,,,,,,,,,,197.37167600000976,197.38699700002326,198.08647560002282,198.08647560002282,198.58607560000382,198.5701544000185,198.57093839999288,198.58607560000382,198.81918480002787,199.00244539999403,199.00244539999403,199.3697828000295,space,1,0.35512459999881685,None,199.37530240003252,199.885037,200.86812970001483,200.8840901000076,,,,,,,,,,,,,,,,,002,001,2025-04-27_17h55.46.012,Cued GoNogo Task,2024.2.4,60.02015476072989,2025-04-27 17h55.58.165496 +0200,
block/CondBlock1.xlsx,You are about to start a block of type 1 trials.,54,54,0,NoGo,NoGo,0.14,0.05,0.2,none,green,horizontal,space,0.7809473000233993,None,None,1,,,,,,0,0,0,0,0,54,54,54,200.8840901000076,,,,,,,,,,,,,,,,200.8683683000272,200.8840901000076,201.58364249998704,201.58364249998704,202.08317390002776,202.0676461000112,202.0685233999975,202.08317390002776,202.23313250002684,202.4163154999842,202.4163154999842,202.90044120000675,None,1,,,202.90352059999714,203.4154578000307,204.41465480002807,,202.91574169998057,202.91574169998057,,,,,,,,,,,,,,,002,001,2025-04-27_17h55.46.012,Cued GoNogo Task,2024.2.4,60.02015476072989,2025-04-27 17h55.58.165496 +0200,
block/CondBlock1.xlsx,You are about to start a block of type 1 trials.,55,55,0,Go,Go,0.15,0.2,0.05,space,blue,vertical,space,0.7809473000233993,None,space,1,0.3940495999995619,None,,,,0,0,0,0,0,55,55,55,204.43145209999057,,,,,,,,,,,,,,,,204.41499050002312,204.43145209999057,205.11418330000015,205.1305973000126,205.6136232999852,205.5978441000334,205.59851480001817,205.6136232999852,205.76361969998106,205.96331449999707,205.96331449999707,206.36401509999996,space,1,0.3940495999995619,None,206.36755580001045,206.8793976000161,207.8625633000047,207.87833560002036,,,,,,,,,,,,,,,,,002,001,2025-04-27_17h55.46.012,Cued GoNogo Task,2024.2.4,60.02015476072989,2025-04-27 17h55.58.165496 +0200,
block/CondBlock1.xlsx,You are about to start a block of type 1 trials.,56,56,0,Go,Go,0.47,0.2,0.05,space,blue,vertical,space,0.7809473000233993,None,space,1,0.37369849998503923,None,,,,0,0,0,0,0,56,56,56,207.87833560002036,,,,,,,,,,,,,,,,207.86284830002114,207.87833560002036,208.57789329998195,208.57789329998195,209.0774528000038,209.0613414000254,209.0619373000227,209.0774528000038,209.56033529998967,209.7435714000021,209.7435714000021,210.12795639998512,space,1,0.37369849998503923,None,210.13236789999064,210.6429137000232,211.62646220001625,211.64194469997892,,,,,,,,,,,,,,,,,002,001,2025-04-27_17h55.46.012,Cued GoNogo Task,2024.2.4,60.02015476072989,2025-04-27 17h55.58.165496 +0200,
block/CondBlock1.xlsx,You are about to start a block of type 1 trials.,57,57,0,NoGo,NoGo,0.42,0.2,0.05,none,green,vertical,space,0.7809473000233993,None,None,1,,,,,,0,0,0,0,0,57,57,57,211.64194469997892,,,,,,,,,,,,,,,,211.62674600002356,211.64194469997892,212.34135509998305,212.34135509998305,212.84101770003326,212.82500210002763,212.82555900001898,212.84101770003326,213.27400869998382,213.457024000003,213.457024000003,213.94065370003227,None,1,,,213.94320059998427,214.43991980003193,215.423179000034,215.4391147000133,213.95683219999773,213.95683219999773,,,,,,,,,,,,,,,002,001,2025-04-27_17h55.46.012,Cued GoNogo Task,2024.2.4,60.02015476072989,2025-04-27 17h55.58.165496 +0200,
block/CondBlock1.xlsx,You are about to start a block of type 1 trials.,58,58,0,Go,Go,0.22,0.05,0.2,space,green,horizontal,space,0.7809473000233993,None,space,1,0.33464070002082735,None,,,,0,0,0,0,0,58,58,58,215.4391147000133,,,,,,,,,,,,,,,,215.42354940000223,215.45544779999182,216.15506020002067,216.15506020002067,216.65447479998693,216.63857760000974,216.63922549999552,216.65447479998693,216.88752150000073,217.07085760001792,217.07085760001792,217.42238330002874,space,1,0.33464070002082735,None,217.42620079999324,217.93670060002478,218.920119300019,218.93605180003215,,,,,,,,,,,,,,,,,002,001,2025-04-27_17h55.46.012,Cued GoNogo Task,2024.2.4,60.02015476072989,2025-04-27 17h55.58.165496 +0200,
block/CondBlock1.xlsx,You are about to start a block of type 1 trials.,59,59,0,Go,Go,0.3,0.2,0.05,space,blue,vertical,space,0.7809473000233993,None,space,1,0.3792807999998331,None,,,,0,0,0,0,0,59,59,59,218.93605180003215,,,,,,,,,,,,,,,,218.92042969999602,218.93605180003215,219.6355281000142,219.6355281000142,220.1350118999835,220.11901630001375,220.11963380000088,220.1350118999835,220.4347829000326,220.6345105000073,220.6345105000073,221.01867040002253,space,1,0.3792807999998331,None,221.0227203000104,221.5339299000334,222.51715530001093,222.53292389999842,,,,,,,,,,,,,,,,,002,001,2025-04-27_17h55.46.012,Cued GoNogo Task,2024.2.4,60.02015476072989,2025-04-27 17h55.58.165496 +0200,
block/CondBlock1.xlsx,You are about to start a block of type 1 trials.,60,60,0,NoGo,NoGo,0.24,0.2,0.05,none,blue,vertical,space,0.7809473000233993,None,None,1,,,,,,0,0,0,0,0,60,60,60,222.53292389999842,,,,,,,,,,,,,,,,222.51753840001766,222.53292389999842,223.23216559999855,223.23216559999855,223.7320749000064,223.71630640001968,223.71709460002603,223.7320749000064,223.9817999000079,224.16506850003498,224.16506850003498,224.64887570001883,None,1,,,224.6512532000197,225.16427770000882,226.14755220001098,226.1633246000274,224.66444429999683,224.66444429999683,,,,,,,,,,,,,,,002,001,2025-04-27_17h55.46.012,Cued GoNogo Task,2024.2.4,60.02015476072989,2025-04-27 17h55.58.165496 +0200,
block/CondBlock1.xlsx,You are about to start a block of type 1 trials.,61,61,0,NoGo,NoGo,0.1,0.2,0.05,none,green,vertical,space,0.7809473000233993,None,space,0,0.287116400024388,None,,,,0,0,0,0,0,61,61,61,226.1633246000274,,,,,,,,,,,,,,,,226.1478303000331,226.1633246000274,226.86292719998164,226.86292719998164,227.36248630000046,227.3461916000233,227.34674000000814,227.36248630000046,227.46236790000694,227.66205799998716,227.66205799998716,227.9633320000139,space,0,0.287116400024388,None,227.96799440000905,228.47824780002702,229.4613305000239,229.4771577999927,,,,,,,,,,,,,,,,,002,001,2025-04-27_17h55.46.012,Cued GoNogo Task,2024.2.4,60.02015476072989,2025-04-27 17h55.58.165496 +0200,
block/CondBlock1.xlsx,You are about to start a block of type 1 trials.,62,62,0,Go,Go,0.45,0.05,0.2,space,blue,horizontal,space,0.7809473000233993,None,space,1,0.2878912999876775,None,,,,0,0,0,0,0,62,62,62,229.4771577999927,,,,,,,,,,,,,,,,229.4615724000032,229.4771577999927,230.1767318000202,230.1767318000202,230.6763101000106,230.66146450000815,230.6625135000213,230.6763101000106,231.1258992999792,231.3257900000317,231.3257900000317,231.62692170002265,space,1,0.2878912999876775,None,231.63205329998164,232.1418088999926,233.12518660002388,233.14086990000214,,,,,,,,,,,,,,,,,002,001,2025-04-27_17h55.46.012,Cued GoNogo Task,2024.2.4,60.02015476072989,2025-04-27 17h55.58.165496 +0200,
block/CondBlock1.xlsx,You are about to start a block of type 1 trials.,63,63,0,Go,Go,0.1,0.05,0.2,space,green,horizontal,space,0.7809473000233993,None,space,1,0.4133564000367187,None,,,,0,0,0,0,0,63,63,63,233.14086990000214,,,,,,,,,,,,,,,,233.12546429998474,233.14086990000214,233.84051870001713,233.84051870001713,234.34004590002587,234.32426229998237,234.32494120002957,234.34004590002587,234.4399208999821,234.63974519999465,234.63974519999465,235.05744820000837,space,1,0.4133564000367187,None,235.06181210000068,235.57243669999298,236.55551500001457,236.5714618000202,,,,,,,,,,,,,,,,,002,001,2025-04-27_17h55.46.012,Cued GoNogo Task,2024.2.4,60.02015476072989,2025-04-27 17h55.58.165496 +0200,
block/CondBlock1.xlsx,You are about to start a block of type 1 trials.,64,64,0,Go,Go,0.19,0.05,0.2,space,blue,horizontal,space,0.7809473000233993,None,space,1,0.2839084999868646,None,,,,0,0,0,0,0,64,64,64,236.5714618000202,,,,,,,,,,,,,,,,236.55579630000284,236.5714618000202,237.27082510001492,237.27082510001492,237.7706232999917,237.7544193000067,237.75534949998837,237.7706232999917,237.97027410002192,238.15351560001727,238.15351560001727,238.45467700000154,space,1,0.2839084999868646,None,238.45938680000836,238.9695836000028,239.95265430002473,239.96862589998636,,,,,,,,,,,,,,,,,002,001,2025-04-27_17h55.46.012,Cued GoNogo Task,2024.2.4,60.02015476072989,2025-04-27 17h55.58.165496 +0200,
block/CondBlock1.xlsx,You are about to start a block of type 1 trials.,65,65,0,Go,Go,0.21,0.2,0.05,space,blue,vertical,space,0.7809473000233993,None,space,1,0.37500830000499263,None,,,,0,0,0,0,0,65,65,65,239.96862589998636,,,,,,,,,,,,,,,,239.95288450003136,239.96862589998636,240.66814219998196,240.66814219998196,241.16776650003158,241.15187050000532,241.15254390001064,241.16776650003158,241.38409310003044,241.5673850000021,241.5673850000021,241.95123830001103,space,1,0.37500830000499263,None,241.9541664000135,242.46667420002632,243.45008300000336,243.46583230001852,,,,,,,,,,,,,,,,,002,001,2025-04-27_17h55.46.012,Cued GoNogo Task,2024.2.4,60.02015476072989,2025-04-27 17h55.58.165496 +0200,
block/CondBlock1.xlsx,You are about to start a block of type 1 trials.,66,66,0,Go,Go,0.18,0.05,0.2,space,blue,horizontal,space,0.7809473000233993,None,space,1,0.31860880000749603,None,,,,0,0,0,0,0,66,66,66,243.46583230001852,,,,,,,,,,,,,,,,243.4504055000143,243.46583230001852,244.16505170002347,244.16505170002347,244.66491350001888,244.64866330003133,244.64906999998493,244.66491350001888,244.84809809998842,245.03115390002495,245.03115390002495,245.36539099999936,space,1,0.31860880000749603,None,245.37019380001584,245.88050020002993,246.8637058000313,246.87958389997948,,,,,,,,,,,,,,,,,002,001,2025-04-27_17h55.46.012,Cued GoNogo Task,2024.2.4,60.02015476072989,2025-04-27 17h55.58.165496 +0200,
block/CondBlock1.xlsx,You are about to start a block of type 1 trials.,67,67,0,Go,Go,0.29,0.2,0.05,space,green,vertical,space,0.7809473000233993,None,space,1,0.3717748000053689,None,,,,0,0,0,0,0,67,67,67,246.87958389997948,,,,,,,,,,,,,,,,246.8639314000029,246.87958389997948,247.57914350001374,247.57914350001374,248.0788496999885,248.06301729998086,248.06412490003277,248.0788496999885,248.37827530002687,248.56155789998593,248.56155789998593,248.94557969999732,space,1,0.3717748000053689,None,248.94856490002712,249.46078470000066,250.4439537000144,250.46025830000872,,,,,,,,,,,,,,,,,002,001,2025-04-27_17h55.46.012,Cued GoNogo Task,2024.2.4,60.02015476072989,2025-04-27 17h55.58.165496 +0200,
block/CondBlock1.xlsx,You are about to start a block of type 1 trials.,68,68,0,NoGo,NoGo,0.24,0.2,0.05,none,blue,vertical,space,0.7809473000233993,None,None,1,,,,,,0,0,0,0,0,68,68,68,250.46025830000872,,,,,,,,,,,,,,,,250.44418099999893,250.46025830000872,251.15950469998643,251.15950469998643,251.65898489998654,251.64331950002816,251.64402040001005,251.65898489998654,251.90891579998424,252.09214920003433,252.09214920003433,252.57583280000836,None,1,,,252.57842259999597,253.09132130001672,254.07460079999873,254.09042160003446,252.5915583000169,252.5915583000169,,,,,,,,,,,,,,,002,001,2025-04-27_17h55.46.012,Cued GoNogo Task,2024.2.4,60.02015476072989,2025-04-27 17h55.58.165496 +0200,
block/CondBlock1.xlsx,You are about to start a block of type 1 trials.,69,69,0,Go,Go,0.27,0.05,0.2,space,green,horizontal,space,0.7809473000233993,None,space,1,0.2741360000218265,None,,,,0,0,0,0,0,69,69,69,254.09042160003446,,,,,,,,,,,,,,,,254.0748930000118,254.09042160003446,254.78968079999322,254.78968079999322,255.2893347000354,255.27325090003433,255.2737133000046,255.2893347000354,255.57248570001684,255.75571210001362,255.75571210001362,256.0400169999921,space,1,0.2741360000218265,None,256.04429039999377,256.5549325000029,257.5380183000234,257.55418680002913,,,,,,,,,,,,,,,,,002,001,2025-04-27_17h55.46.012,Cued GoNogo Task,2024.2.4,60.02015476072989,2025-04-27 17h55.58.165496 +0200,
block/CondBlock1.xlsx,You are about to start a block of type 1 trials.,70,70,0,Go,Go,0.25,0.2,0.05,space,green,vertical,space,0.7809473000233993,None,space,1,0.3311376999481581,None,,,,0,0,0,0,0,70,70,70,257.55418680002913,,,,,,,,,,,,,,,,257.5382344999816,257.55418680002913,258.2535591000342,258.2535591000342,258.75331230001757,258.73722910002107,258.7377940000151,258.75331230001757,259.0031784999883,259.20285270002205,259.20285270002205,259.5368934000144,space,1,0.3311376999481581,None,259.54047220002394,260.0523378000362,261.03583090001484,261.0513620999991,,,,,,,,,,,,,,,,,002,001,2025-04-27_17h55.46.012,Cued GoNogo Task,2024.2.4,60.02015476072989,2025-04-27 17h55.58.165496 +0200,
block/CondBlock1.xlsx,You are about to start a block of type 1 trials.,71,71,0,Go,Go,0.28,0.05,0.2,space,green,horizontal,space,0.7809473000233993,None,space,1,0.2817083999980241,None,,,,0,0,0,0,0,71,71,71,261.0513620999991,,,,,,,,,,,,,,,,261.03616750001675,261.0513620999991,261.75066150003113,261.75066150003113,262.250348200032,262.23438370000804,262.23477099998854,262.250348200032,262.5335539000225,262.7166076999856,262.7166076999856,263.0016032999847,space,1,0.2817083999980241,None,263.00513950001914,263.515922599996,264.4992319000303,264.5151513000019,,,,,,,,,,,,,,,,,002,001,2025-04-27_17h55.46.012,Cued GoNogo Task,2024.2.4,60.02015476072989,2025-04-27 17h55.58.165496 +0200,
block/CondBlock1.xlsx,You are about to start a block of type 1 trials.,72,72,0,Go,Go,0.14,0.05,0.2,space,blue,horizontal,space,0.7809473000233993,None,space,1,0.2862310000346042,None,,,,0,0,0,0,0,72,72,72,264.5151513000019,,,,,,,,,,,,,,,,264.49952050001593,264.5151513000019,265.2145066999947,265.2145066999947,265.71415670000715,265.69830629997887,265.6989988000132,265.71415670000715,265.8642602000036,266.04714550002245,266.04714550002245,266.34799219999695,space,1,0.2862310000346042,None,266.351587400015,266.8632531000185,267.8463748000213,267.8623905000277,,,,,,,,,,,,,,,,,002,001,2025-04-27_17h55.46.012,Cued GoNogo Task,2024.2.4,60.02015476072989,2025-04-27 17h55.58.165496 +0200,
block/CondBlock1.xlsx,You are about to start a block of type 1 trials.,73,73,0,Go,Go,0.11,0.05,0.2,space,blue,horizontal,space,0.7809473000233993,None,space,1,0.3243855999899097,None,,,,0,0,0,0,0,73,73,73,267.8623905000277,,,,,,,,,,,,,,,,267.84660649998114,267.8623905000277,268.5618016999797,268.5618016999797,269.06140519998735,269.0455870000296,269.046176999982,269.06140519998735,269.1780132999993,269.36112830002094,269.36112830002094,269.6954067000188,space,1,0.3243855999899097,None,269.70006439997815,270.2105254000053,271.19396420003613,271.2095875000232,,,,,,,,,,,,,,,,,002,001,2025-04-27_17h55.46.012,Cued GoNogo Task,2024.2.4,60.02015476072989,2025-04-27 17h55.58.165496 +0200,
block/CondBlock1.xlsx,You are about to start a block of type 1 trials.,74,74,0,Go,Go,0.22,0.2,0.05,space,blue,vertical,space,0.7809473000233993,None,space,1,0.3567649999749847,None,,,,0,0,0,0,0,74,74,74,271.2095875000232,,,,,,,,,,,,,,,,271.194235700008,271.2095875000232,271.9091022000066,271.9091022000066,272.4087777999812,272.39283389999764,272.3934570000274,272.4087777999812,272.64176020002924,272.8249979999964,272.8249979999964,273.1929237000295,space,1,0.3567649999749847,None,273.1975646999781,273.7075438000029,274.69090190000134,274.7068073999835,,,,,,,,,,,,,,,,,002,001,2025-04-27_17h55.46.012,Cued GoNogo Task,2024.2.4,60.02015476072989,2025-04-27 17h55.58.165496 +0200,
block/CondBlock1.xlsx,You are about to start a block of type 1 trials.,75,75,0,Go,Go,0.26,0.05,0.2,space,blue,horizontal,space,0.7809473000233993,None,space,1,0.4412927000084892,None,,,,0,0,0,0,0,75,75,75,274.7068073999835,,,,,,,,,,,,,,,,274.69116370001575,274.7068073999835,275.4063295000233,275.4063295000233,275.90583589999005,275.88973609998357,275.89032240002416,275.90583589999005,276.172222800029,276.35544950002804,276.35544950002804,276.80620560003445,space,1,0.4412927000084892,None,276.8102318000165,277.32128099998226,278.30461440002546,278.32049270003336,,,,,,,,,,,,,,,,,002,001,2025-04-27_17h55.46.012,Cued GoNogo Task,2024.2.4,60.02015476072989,2025-04-27 17h55.58.165496 +0200,
block/CondBlock1.xlsx,You are about to start a block of type 1 trials.,76,76,0,Go,Go,0.14,0.2,0.05,space,green,vertical,space,0.7809473000233993,None,space,1,0.37799479998648167,None,,,,0,0,0,0,0,76,76,76,278.32049270003336,,,,,,,,,,,,,,,,278.3049137000344,278.32049270003336,279.0198634000262,279.0198634000262,279.51941030001035,279.5035013000015,279.50412450003205,279.51941030001035,279.6694654999883,279.8525987000321,279.8525987000321,280.23670990002574,space,1,0.37799479998648167,None,280.24022099998547,280.75195250002434,281.7350050000241,281.7508930999902,,,,,,,,,,,,,,,,,002,001,2025-04-27_17h55.46.012,Cued GoNogo Task,2024.2.4,60.02015476072989,2025-04-27 17h55.58.165496 +0200,
block/CondBlock1.xlsx,You are about to start a block of type 1 trials.,77,77,0,Go,Go,0.18,0.05,0.2,space,green,horizontal,space,0.7809473000233993,None,space,1,0.37825060001341626,None,,,,0,0,0,0,0,77,77,77,281.7508930999902,,,,,,,,,,,,,,,,281.73526330001187,281.7508930999902,282.4504694000352,282.4504694000352,282.9500614000135,282.93387790001,282.93438009999227,282.9500614000135,283.133110099996,283.31651939998847,283.31651939998847,283.7008208000334,space,1,0.37825060001341626,None,283.7056714000064,284.2156341000227,285.19883100001607,285.2148003000184,,,,,,,,,,,,,,,,,002,001,2025-04-27_17h55.46.012,Cued GoNogo Task,2024.2.4,60.02015476072989,2025-04-27 17h55.58.165496 +0200,
block/CondBlock1.xlsx,You are about to start a block of type 1 trials.,78,78,0,NoGo,NoGo,0.27,0.05,0.2,none,blue,horizontal,space,0.7809473000233993,None,None,1,,,,,,0,0,0,0,0,78,78,78,285.2148003000184,,,,,,,,,,,,,,,,285.19909830001416,285.2148003000184,285.91430070000933,285.91430070000933,286.41384709998965,286.39782160002505,286.3983809000347,286.41384709998965,286.6969154999824,286.8803723999881,286.8803723999881,287.3637879000162,None,1,,,287.3662664000294,287.8795272000134,288.8626952000195,288.87834130000556,287.37949730001856,287.37949730001856,,,,,,,,,,,,,,,002,001,2025-04-27_17h55.46.012,Cued GoNogo Task,2024.2.4,60.02015476072989,2025-04-27 17h55.58.165496 +0200,
block/CondBlock1.xlsx,You are about to start a block of type 1 trials.,79,79,0,NoGo,NoGo,0.26,0.2,0.05,none,blue,vertical,space,0.7809473000233993,None,None,1,,,,,,0,0,0,0,0,79,79,79,288.87834130000556,,,,,,,,,,,,,,,,288.8630453000078,288.87834130000556,289.57795070001157,289.57795070001157,290.0774421999813,290.0612199000316,290.06165410001995,290.0774421999813,290.3439348000102,290.52705620002234,290.52705620002234,291.0112081000116,None,1,,,291.01172150002094,291.52617880003527,292.5095612999867,292.52548930002376,291.02682119997917,291.02682119997917,,,,,,,,,,,,,,,002,001,2025-04-27_17h55.46.012,Cued GoNogo Task,2024.2.4,60.02015476072989,2025-04-27 17h55.58.165496 +0200,
block/CondBlock1.xlsx,You are about to start a block of type 1 trials.,80,80,0,Go,Go,0.22,0.2,0.05,space,green,vertical,space,0.7809473000233993,None,space,1,0.3937807999900542,None,,,,0,0,0,0,0,80,80,80,292.52548930002376,,,,,,,,,,,,,,,,292.5098487000214,292.52548930002376,293.22486409998965,293.22486409998965,293.7244070000015,293.7086032999796,293.7093246000004,293.7244070000015,293.95755970000755,294.14073689997895,294.14073689997895,294.54159789998084,space,1,0.3937807999900542,None,294.5452945000143,295.0567112999852,296.0405949000269,296.0558556999895,,,,,,,,,,,,,,,,,002,001,2025-04-27_17h55.46.012,Cued GoNogo Task,2024.2.4,60.02015476072989,2025-04-27 17h55.58.165496 +0200,
block/CondBlock1.xlsx,You are about to start a block of type 1 trials.,81,81,0,Go,Go,0.5,0.2,0.05,space,green,vertical,space,0.7809473000233993,None,space,1,0.37150670000119135,None,,,,0,0,0,0,0,81,81,81,296.0558556999895,,,,,,,,,,,,,,,,296.0410031999927,296.0558556999895,296.75535839999793,296.75535839999793,297.254957200028,297.2389073999948,297.23945940000704,297.254957200028,297.7543422000017,297.9545193000231,297.9545193000231,298.33876940002665,space,1,0.37150670000119135,None,298.34352400002535,298.85361869999906,299.83685479999986,299.85284360003425,,,,,,,,,,,,,,,,,002,001,2025-04-27_17h55.46.012,Cued GoNogo Task,2024.2.4,60.02015476072989,2025-04-27 17h55.58.165496 +0200,
block/CondBlock1.xlsx,You are about to start a block of type 1 trials.,82,82,0,Go,Go,0.43,0.05,0.2,space,green,horizontal,space,0.7809473000233993,None,space,1,0.2815499999560416,None,,,,0,0,0,0,0,82,82,82,299.85284360003425,,,,,,,,,,,,,,,,299.83711020002374,299.85284360003425,300.5521729000029,300.5521729000029,301.05186160001904,301.03555089997826,301.0360351999989,301.05186160001904,301.48472110001603,301.6680830999976,301.6680830999976,301.9519687999855,space,1,0.2815499999560416,None,301.95515150000574,302.4673071000143,303.45055280003,303.46636910003144,,,,,,,,,,,,,,,,,002,001,2025-04-27_17h55.46.012,Cued GoNogo Task,2024.2.4,60.02015476072989,2025-04-27 17h55.58.165496 +0200,
block/CondBlock1.xlsx,You are about to start a block of type 1 trials.,83,83,0,Go,Go,0.25,0.2,0.05,space,green,vertical,space,0.7809473000233993,None,space,1,0.32269930001348257,None,,,,0,0,0,0,0,83,83,83,303.46636910003144,,,,,,,,,,,,,,,,303.45080099999905,303.46636910003144,304.16581289999885,304.16581289999885,304.66551409999374,304.649495700025,304.6501781999832,304.66551409999374,304.9151654000161,305.11517990002176,305.11517990002176,305.4494446000317,space,1,0.32269930001348257,None,305.4528652000008,305.96447080001235,306.94781869999133,306.9636735999957,,,,,,,,,,,,,,,,,002,001,2025-04-27_17h55.46.012,Cued GoNogo Task,2024.2.4,60.02015476072989,2025-04-27 17h55.58.165496 +0200,
block/CondBlock1.xlsx,You are about to start a block of type 1 trials.,84,84,0,NoGo,NoGo,0.14,0.2,0.05,none,green,vertical,space,0.7809473000233993,None,None,1,,,,,,0,0,0,0,0,84,84,84,306.9636735999957,,,,,,,,,,,,,,,,306.9481109000044,306.9636735999957,307.6630762999994,307.6630762999994,308.16263289999915,308.1466180999996,308.1471156000043,308.16263289999915,308.3125861000153,308.49564600002486,308.49564600002486,308.9791966000339,None,1,,,308.9815474000061,309.49477819999447,310.4780650000321,310.49396400002297,308.99511379998876,308.99511379998876,,,,,,,,,,,,,,,002,001,2025-04-27_17h55.46.012,Cued GoNogo Task,2024.2.4,60.02015476072989,2025-04-27 17h55.58.165496 +0200,
block/CondBlock1.xlsx,You are about to start a block of type 1 trials.,85,85,0,Go,Go,0.2,0.05,0.2,space,blue,horizontal,space,0.7809473000233993,None,space,1,0.3682488000486046,None,,,,0,0,0,0,0,85,85,85,310.49396400002297,,,,,,,,,,,,,,,,310.478372499987,310.49396400002297,311.19335720001254,311.19335720001254,311.6931096999906,311.6770159000298,311.6776783000096,311.6931096999906,311.8927277000039,312.092737900035,312.092737900035,312.47713860002114,space,1,0.3682488000486046,None,312.48237029998563,312.9920267999987,313.9752395999967,313.9912900000345,,,,,,,,,,,,,,,,,002,001,2025-04-27_17h55.46.012,Cued GoNogo Task,2024.2.4,60.02015476072989,2025-04-27 17h55.58.165496 +0200,
block/CondBlock1.xlsx,You are about to start a block of type 1 trials.,86,86,0,Go,Go,0.16,0.2,0.05,space,blue,vertical,space,0.7809473000233993,None,space,1,0.45746090001193807,None,,,,0,0,0,0,0,86,86,86,313.9912900000345,,,,,,,,,,,,,,,,313.9755102000199,313.9912900000345,314.6905907000182,314.6905907000182,315.19020820001606,315.1742767000105,315.17497470002854,315.19020820001606,315.35653200000525,315.5400381999789,315.5400381999789,316.00744210003177,space,1,0.45746090001193807,None,316.01298400003,316.5221408000216,317.5056851999834,317.5214926000335,,,,,,,,,,,,,,,,,002,001,2025-04-27_17h55.46.012,Cued GoNogo Task,2024.2.4,60.02015476072989,2025-04-27 17h55.58.165496 +0200,
block/CondBlock1.xlsx,You are about to start a block of type 1 trials.,87,87,0,Go,Go,0.41,0.2,0.05,space,green,vertical,space,0.7809473000233993,None,space,1,0.365874300012365,None,,,,0,0,0,0,0,87,87,87,317.5214926000335,,,,,,,,,,,,,,,,317.5060483000125,317.5214926000335,318.2208475000225,318.2208475000225,318.7205650000251,318.70448600000236,318.7051041999948,318.7205650000251,319.1368553999928,319.32005079998635,319.32005079998635,319.68836889998056,space,1,0.365874300012365,None,319.6920332000009,320.20277460000943,321.18580239999574,321.20193660003133,,,,,,,,,,,,,,,,,002,001,2025-04-27_17h55.46.012,Cued GoNogo Task,2024.2.4,60.02015476072989,2025-04-27 17h55.58.165496 +0200,
block/CondBlock1.xlsx,You are about to start a block of type 1 trials.,88,88,0,NoGo,NoGo,0.15,0.2,0.05,none,green,vertical,space,0.7809473000233993,None,None,1,,,,,,0,0,0,0,0,88,88,88,321.20193660003133,,,,,,,,,,,,,,,,321.18605100002605,321.20193660003133,321.90130409999983,321.90130409999983,322.4008864000207,322.384990999999,322.3854994000285,322.4008864000207,322.55070630001137,322.7507218000246,322.7507218000246,323.23411070002476,None,1,,,323.2360348000075,323.7496645000065,324.73322719999123,324.7491157000186,323.2501138999942,323.2501138999942,,,,,,,,,,,,,,,002,001,2025-04-27_17h55.46.012,Cued GoNogo Task,2024.2.4,60.02015476072989,2025-04-27 17h55.58.165496 +0200,
block/CondBlock1.xlsx,You are about to start a block of type 1 trials.,89,89,0,Go,Go,0.24,0.05,0.2,space,blue,horizontal,space,0.7809473000233993,None,space,1,0.26465440000174567,None,,,,0,0,0,0,0,89,89,89,324.7491157000186,,,,,,,,,,,,,,,,324.7336631999933,324.7491157000186,325.4484536999953,325.4484536999953,325.94797129998915,325.931922400021,325.93260120000923,325.94797129998915,326.197487300029,326.38098840002203,326.38098840002203,326.6489452000242,space,1,0.26465440000174567,None,326.65254129999084,327.16372190002585,328.1471843000036,328.1626707999967,,,,,,,,,,,,,,,,,002,001,2025-04-27_17h55.46.012,Cued GoNogo Task,2024.2.4,60.02015476072989,2025-04-27 17h55.58.165496 +0200,
block/CondBlock1.xlsx,You are about to start a block of type 1 trials.,90,90,0,Go,Go,0.25,0.2,0.05,space,blue,vertical,space,0.7809473000233993,None,space,1,0.32233920000726357,None,,,,0,0,0,0,0,90,90,90,328.1626707999967,,,,,,,,,,,,,,,,328.1474723999854,328.1626707999967,328.8622220000252,328.8622220000252,329.3618164000218,329.34587249998003,329.34649130003527,329.3618164000218,329.6118667999981,329.81141500000376,329.81141500000376,330.1453595000203,space,1,0.32233920000726357,None,330.1487664000015,330.66093900002306,331.65998200001195,,,,,,,,,,,,,,,,,,002,001,2025-04-27_17h55.46.012,Cued GoNogo Task,2024.2.4,60.02015476072989,2025-04-27 17h55.58.165496 +0200,
block/CondBlock1.xlsx,You are about to start a block of type 1 trials.,91,91,0,Go,Go,0.26,0.05,0.2,space,green,horizontal,space,0.7809473000233993,None,space,1,0.28030539996689186,None,,,,0,0,0,0,0,91,91,91,331.6764518999844,,,,,,,,,,,,,,,,331.66020220000064,331.6764518999844,332.3592850000132,332.3759570000111,332.85902069997974,332.8429388999939,332.8435448000091,332.85902069997974,333.12553339998703,333.30867589998525,333.30867589998525,333.59298090002267,space,1,0.28030539996689186,None,333.5975421000039,334.1080610000063,335.09137710003415,335.1070562999812,,,,,,,,,,,,,,,,,002,001,2025-04-27_17h55.46.012,Cued GoNogo Task,2024.2.4,60.02015476072989,2025-04-27 17h55.58.165496 +0200,
block/CondBlock1.xlsx,You are about to start a block of type 1 trials.,92,92,0,NoGo,NoGo,0.44,0.2,0.05,none,blue,vertical,space,0.7809473000233993,None,None,1,,,,,,0,0,0,0,0,92,92,92,335.1070562999812,,,,,,,,,,,,,,,,335.0917544999975,335.1070562999812,335.80654660001164,335.80654660001164,336.30600560002495,336.29021469998406,336.2908531000139,336.30600560002495,336.75570219999645,336.9388673999929,336.9388673999929,337.42277190001914,None,1,,,337.42501559999073,337.9382425000076,338.9216861000168,338.93745249998756,337.4384736000211,337.4384736000211,,,,,,,,,,,,,,,002,001,2025-04-27_17h55.46.012,Cued GoNogo Task,2024.2.4,60.02015476072989,2025-04-27 17h55.58.165496 +0200,
block/CondBlock1.xlsx,You are about to start a block of type 1 trials.,93,93,0,Go,Go,0.13,0.2,0.05,space,green,vertical,space,0.7809473000233993,None,space,1,0.31387670000549406,None,,,,0,0,0,0,0,93,93,93,338.93745249998756,,,,,,,,,,,,,,,,338.92210070003057,338.93745249998756,339.6368034000043,339.6368034000043,340.13654169999063,340.120617699984,340.121455400018,340.13654169999063,340.2697028000257,340.4527019999805,340.4527019999805,340.77026409999235,space,1,0.31387670000549406,None,340.7741095999954,341.28550280001946,342.2686972999945,342.284588599985,,,,,,,,,,,,,,,,,002,001,2025-04-27_17h55.46.012,Cued GoNogo Task,2024.2.4,60.02015476072989,2025-04-27 17h55.58.165496 +0200,
block/CondBlock1.xlsx,You are about to start a block of type 1 trials.,94,94,0,Go,Go,0.44,0.05,0.2,space,blue,horizontal,space,0.7809473000233993,None,space,1,0.24108619999606162,None,,,,0,0,0,0,0,94,94,94,342.284588599985,,,,,,,,,,,,,,,,342.26907730003586,342.284588599985,342.98409079998964,342.98409079998964,343.4835873999982,343.4675518000149,343.4684537000139,343.4835873999982,343.93322649999755,344.1164318000083,344.1164318000083,344.36738190002507,space,1,0.24108619999606162,None,344.3725351000321,344.88272520003375,345.8816864999826,,,,,,,,,,,,,,,,,,002,001,2025-04-27_17h55.46.012,Cued GoNogo Task,2024.2.4,60.02015476072989,2025-04-27 17h55.58.165496 +0200,
block/CondBlock1.xlsx,You are about to start a block of type 1 trials.,95,95,0,Go,Go,0.15,0.2,0.05,space,green,vertical,space,0.7809473000233993,None,space,1,0.4234664000105113,None,,,,0,0,0,0,0,95,95,95,345.8982553000096,,,,,,,,,,,,,,,,345.88196119997883,345.8982553000096,346.5810626000166,346.59778810001444,347.0805192000116,347.06489959999453,347.0658410000033,347.0805192000116,347.2306322000222,347.43038620002335,347.43038620002335,347.8643594000023,space,1,0.4234664000105113,None,347.8682423999999,348.3796008999925,349.3627235000022,349.3787841000012,,,,,,,,,,,,,,,,,002,001,2025-04-27_17h55.46.012,Cued GoNogo Task,2024.2.4,60.02015476072989,2025-04-27 17h55.58.165496 +0200,
block/CondBlock1.xlsx,You are about to start a block of type 1 trials.,96,96,0,Go,Go,0.49,0.2,0.05,space,green,vertical,space,0.7809473000233993,None,space,1,0.4163605999783613,None,,,,0,0,0,0,0,96,96,96,349.3787841000012,,,,,,,,,,,,,,,,349.362967699999,349.3787841000012,350.0782323000021,350.0782323000021,350.5777079000254,350.56214410002576,350.56300949997967,350.5777079000254,351.0774737999891,351.26065110001946,351.26065110001946,351.67911510000704,space,1,0.4163605999783613,None,351.6839153000037,352.193098400021,353.1762715000077,353.1921664000256,,,,,,,,,,,,,,,,,002,001,2025-04-27_17h55.46.012,Cued GoNogo Task,2024.2.4,60.02015476072989,2025-04-27 17h55.58.165496 +0200,
block/CondBlock1.xlsx,You are about to start a block of type 1 trials.,97,97,0,Go,Go,0.11,0.2,0.05,space,blue,vertical,space,0.7809473000233993,None,space,1,0.3620779999764636,None,,,,0,0,0,0,0,97,97,97,353.1921664000256,,,,,,,,,,,,,,,,353.17652989999624,353.1921664000256,353.89154829998733,353.89154829998733,354.3914700000314,354.37533599999733,354.37582030001795,354.3914700000314,354.5077227000147,354.69123039999977,354.69123039999977,355.0589352999814,space,1,0.3620779999764636,None,355.0643774000346,355.57380780001404,356.5573250000016,356.5726625000243,,,,,,,,,,,,,,,,,002,001,2025-04-27_17h55.46.012,Cued GoNogo Task,2024.2.4,60.02015476072989,2025-04-27 17h55.58.165496 +0200,
block/CondBlock1.xlsx,You are about to start a block of type 1 trials.,98,98,0,Go,Go,0.26,0.05,0.2,space,green,horizontal,space,0.7809473000233993,None,space,1,0.2965196000295691,None,,,,0,0,0,0,0,98,98,98,356.5726625000243,,,,,,,,,,,,,,,,356.5576422000304,356.5726625000243,357.2723079000134,357.2723079000134,357.7718369999784,357.75584320002235,357.75634540000465,357.7718369999784,358.0383258999791,358.2212843000307,358.2212843000307,358.52221150003606,space,1,0.2965196000295691,None,358.52728310000384,359.0375031000003,360.0206698999973,360.036738099996,,,,,,,,,,,,,,,,,002,001,2025-04-27_17h55.46.012,Cued GoNogo Task,2024.2.4,60.02015476072989,2025-04-27 17h55.58.165496 +0200,
block/CondBlock1.xlsx,You are about to start a block of type 1 trials.,99,99,0,Go,Go,0.28,0.05,0.2,space,green,horizontal,space,0.7809473000233993,None,space,1,0.3280619999859482,None,,,,0,0,0,0,0,99,99,99,360.036738099996,,,,,,,,,,,,,,,,360.0209538000054,360.036738099996,360.73607600003015,360.73607600003015,361.23585430003004,361.21954960003495,361.22011360002216,361.23585430003004,361.5186657999875,361.7017461999785,361.7017461999785,362.03612250002334,space,1,0.3280619999859482,None,362.0402530999854,362.5513009999995,363.5344584999839,363.5506607000134,,,,,,,,,,,,,,,,,002,001,2025-04-27_17h55.46.012,Cued GoNogo Task,2024.2.4,60.02015476072989,2025-04-27 17h55.58.165496 +0200,
block/CondBlock1.xlsx,You are about to start a block of type 1 trials.,0,0,0,,,,,,,,,space,0.7809473000233993,None,,,,,space,1.679518699995242,None,0,0,0,0,,,,,,,,,,,,,,,,,,,,,,,,,,,,,,,,,,,,,,,,,,,363.54833880002843,363.5506607000134,363.5506607000134,365.23355419997824,space,1.679518699995242,None,,,,,,,,002,001,2025-04-27_17h55.46.012,Cued GoNogo Task,2024.2.4,60.02015476072989,2025-04-27 17h55.58.165496 +0200,
block/CondBlock2.xlsx,You are about to start a block of type 2 trials.,0,0,0,Go,Go,0.18,0.05,0.2,space,green,horizontal,space,250.80523489997722,None,space,1,0.35629660001723096,None,,,,0,1,1,1,0,0,0,0,616.0982086000149,,,,,,,,,365.23755950003397,365.24897070002044,365.24897070002044,616.0611803000211,space,250.80523489997722,None,616.0962391999783,616.0982086000149,616.7755040000193,616.8088039000286,617.2750814000028,617.2591094999807,617.2600239000167,617.2750814000028,617.4583016000106,617.6415717999917,617.6415717999917,618.0098045000341,space,1,0.35629660001723096,None,618.0160049999831,618.5241668000235,619.5078085000277,619.5232176000136,,,,,,,,,,,,,,,,,002,001,2025-04-27_17h55.46.012,Cued GoNogo Task,2024.2.4,60.02015476072989,2025-04-27 17h55.58.165496 +0200,
block/CondBlock2.xlsx,You are about to start a block of type 2 trials.,1,1,0,Go,Go,0.2,0.2,0.05,space,green,vertical,space,250.80523489997722,None,space,1,0.2761472000274807,None,,,,0,1,1,1,0,1,1,1,619.5232176000136,,,,,,,,,,,,,,,,619.5082533999812,619.5232176000136,620.2226467999863,620.2226467999863,620.7222341999877,620.7061866000295,620.7066638999968,620.7222341999877,620.9219052999979,621.121598400001,621.121598400001,621.4058779000188,space,1,0.2761472000274807,None,621.4092360999784,621.9211243999889,622.9042640000116,622.9203838999965,,,,,,,,,,,,,,,,,002,001,2025-04-27_17h55.46.012,Cued GoNogo Task,2024.2.4,60.02015476072989,2025-04-27 17h55.58.165496 +0200,
block/CondBlock2.xlsx,You are about to start a block of type 2 trials.,2,2,0,Go,Go,0.22,0.05,0.2,space,blue,horizontal,space,250.80523489997722,None,space,1,0.3012970000272617,None,,,,0,1,1,1,0,2,2,2,622.9203838999965,,,,,,,,,,,,,,,,622.9044851000072,622.9203838999965,623.6200146999909,623.6200146999909,624.1193595000077,624.1037924999837,624.1047394000343,624.1193595000077,624.3525080999825,624.5355527999927,624.5355527999927,624.8534761000192,space,1,0.3012970000272617,None,624.8577791000134,625.3684315999853,626.3515324000036,626.3675069999881,,,,,,,,,,,,,,,,,002,001,2025-04-27_17h55.46.012,Cued GoNogo Task,2024.2.4,60.02015476072989,2025-04-27 17h55.58.165496 +0200,
block/CondBlock2.xlsx,You are about to start a block of type 2 trials.,3,3,0,Go,Go,0.14,0.05,0.2,space,green,horizontal,space,250.80523489997722,None,space,1,0.3859169000061229,None,,,,0,1,1,1,0,3,3,3,626.3675069999881,,,,,,,,,,,,,,,,626.3518435999868,626.3675069999881,627.067234600021,627.067234600021,627.566579699982,627.5506910000113,627.55128840002,627.566579699982,627.7166127000237,627.8996091000154,627.8996091000154,628.3006056000013,space,1,0.3859169000061229,None,628.3047612999799,628.8155167999794,629.7986547999899,629.8147351000225,,,,,,,,,,,,,,,,,002,001,2025-04-27_17h55.46.012,Cued GoNogo Task,2024.2.4,60.02015476072989,2025-04-27 17h55.58.165496 +0200,
block/CondBlock2.xlsx,You are about to start a block of type 2 trials.,4,4,0,Go,Go,0.26,0.05,0.2,space,blue,horizontal,space,250.80523489997722,None,space,1,0.29421820002608,None,,,,0,1,1,1,0,4,4,4,629.8147351000225,,,,,,,,,,,,,,,,629.7988844999927,629.8147351000225,630.5141863999888,630.5141863999888,631.0140088000335,630.9979335999815,630.9989136999939,631.0140088000335,631.2802022999967,631.4632780000102,631.4632780000102,631.7649621000164,space,1,0.29421820002608,None,631.7697537000058,632.2793168000062,633.2628244999796,633.2785051999963,,,,,,,,,,,,,,,,,002,001,2025-04-27_17h55.46.012,Cued GoNogo Task,2024.2.4,60.02015476072989,2025-04-27 17h55.58.165496 +0200,
block/CondBlock2.xlsx,You are about to start a block of type 2 trials.,5,5,0,Go,Go,0.1,0.05,0.2,space,blue,horizontal,space,250.80523489997722,None,space,1,0.2605786999920383,None,,,,0,1,1,1,0,5,5,5,633.2785051999963,,,,,,,,,,,,,,,,633.2631244999939,633.2785051999963,633.9779185000225,633.9779185000225,634.4775019999943,634.4617611999856,634.4624801999889,634.4775019999943,634.5774545000168,634.777180300036,634.777180300036,635.0448627999867,space,1,0.2605786999920383,None,635.0484737000079,635.5602756000008,636.5592476000311,,,,,,,,,,,,,,,,,,002,001,2025-04-27_17h55.46.012,Cued GoNogo Task,2024.2.4,60.02015476072989,2025-04-27 17h55.58.165496 +0200,
block/CondBlock2.xlsx,You are about to start a block of type 2 trials.,6,6,0,NoGo,NoGo,0.3,0.2,0.05,none,green,vertical,space,250.80523489997722,None,None,1,,,,,,0,1,1,1,0,6,6,6,636.5759571000235,,,,,,,,,,,,,,,,636.5595309000346,636.5759571000235,637.2586841000011,637.2752444000216,637.7581362000201,637.7423806000152,637.7431163000292,637.7581362000201,638.0579125999939,638.2577189999865,638.2577189999865,638.7415692000068,None,1,,,638.7438800000236,639.2568673000205,640.2402997000027,640.2561828999897,638.7573163000052,638.7573163000052,,,,,,,,,,,,,,,002,001,2025-04-27_17h55.46.012,Cued GoNogo Task,2024.2.4,60.02015476072989,2025-04-27 17h55.58.165496 +0200,
block/CondBlock2.xlsx,You are about to start a block of type 2 trials.,7,7,0,NoGo,NoGo,0.14,0.05,0.2,none,blue,horizontal,space,250.80523489997722,None,None,1,,,,,,0,1,1,1,0,7,7,7,640.2561828999897,,,,,,,,,,,,,,,,640.2406740000006,640.2561828999897,640.9554586000158,640.9554586000158,641.4551151000196,641.4397460999899,641.4408213000279,641.4551151000196,641.6049988000304,641.7880516999867,641.7880516999867,642.272174999991,None,1,,,642.2726414999925,642.7873816000065,643.7705297000357,643.7865592000308,642.2877092999988,642.2877092999988,,,,,,,,,,,,,,,002,001,2025-04-27_17h55.46.012,Cued GoNogo Task,2024.2.4,60.02015476072989,2025-04-27 17h55.58.165496 +0200,
block/CondBlock2.xlsx,You are about to start a block of type 2 trials.,8,8,0,Go,Go,0.13,0.2,0.05,space,blue,vertical,space,250.80523489997722,None,space,1,0.3918851999915205,None,,,,0,1,1,1,0,8,8,8,643.7865592000308,,,,,,,,,,,,,,,,643.7707646000199,643.7865592000308,644.4861462999834,644.4861462999834,644.9856178000337,644.9696066000033,644.9700978000183,644.9856178000337,645.1188190000248,645.3018172000302,645.3018172000302,645.7030598000274,space,1,0.3918851999915205,None,645.7071545000072,646.2179423000198,647.2012907000026,647.2170756999985,,,,,,,,,,,,,,,,,002,001,2025-04-27_17h55.46.012,Cued GoNogo Task,2024.2.4,60.02015476072989,2025-04-27 17h55.58.165496 +0200,
block/CondBlock2.xlsx,You are about to start a block of type 2 trials.,9,9,0,Go,Go,0.43,0.2,0.05,space,green,vertical,space,250.80523489997722,None,space,1,0.4048942999797873,None,,,,0,1,1,1,0,9,9,9,647.2170756999985,,,,,,,,,,,,,,,,647.2016632999876,647.2170756999985,647.9165293999831,647.9165293999831,648.4161505000084,648.4005662000272,648.4015447000274,648.4161505000084,648.8489670000272,649.0324842000264,649.0324842000264,649.4496327000088,space,1,0.4048942999797873,None,649.4532525999821,649.9647912000073,650.9481504000141,650.9638996000285,,,,,,,,,,,,,,,,,002,001,2025-04-27_17h55.46.012,Cued GoNogo Task,2024.2.4,60.02015476072989,2025-04-27 17h55.58.165496 +0200,
block/CondBlock2.xlsx,You are about to start a block of type 2 trials.,10,10,0,Go,Go,0.14,0.2,0.05,space,green,vertical,space,250.80523489997722,None,space,1,0.3337026999797672,None,,,,0,1,1,1,0,10,10,10,650.9638996000285,,,,,,,,,,,,,,,,650.9484333000146,650.9638996000285,651.6636241999804,651.6636241999804,652.162969500001,652.1473142000032,652.1479845999856,652.162969500001,652.3130257999874,652.4960793000064,652.4960793000064,652.846588800021,space,1,0.3337026999797672,None,652.8499321999843,653.3619810999953,654.3451502000098,654.3612067000358,,,,,,,,,,,,,,,,,002,001,2025-04-27_17h55.46.012,Cued GoNogo Task,2024.2.4,60.02015476072989,2025-04-27 17h55.58.165496 +0200,
block/CondBlock2.xlsx,You are about to start a block of type 2 trials.,11,11,0,Go,Go,0.27,0.2,0.05,space,green,vertical,space,250.80523489997722,None,space,1,0.36338170000817627,None,,,,0,1,1,1,0,11,11,11,654.3612067000358,,,,,,,,,,,,,,,,654.3453663000255,654.3612067000358,655.0605061000097,655.0605061000097,655.5602250000229,655.5442366999923,655.5449040000094,655.5602250000229,655.8431808000314,656.026408100035,656.026408100035,656.393855500035,space,1,0.36338170000817627,None,656.3973912000074,656.9090352000203,657.892830900033,657.9083354999893,,,,,,,,,,,,,,,,,002,001,2025-04-27_17h55.46.012,Cued GoNogo Task,2024.2.4,60.02015476072989,2025-04-27 17h55.58.165496 +0200,
block/CondBlock2.xlsx,You are about to start a block of type 2 trials.,12,12,0,Go,Go,0.3,0.05,0.2,space,green,horizontal,space,250.80523489997722,None,space,1,0.3278555999859236,None,,,,0,1,1,1,0,12,12,12,657.9083354999893,,,,,,,,,,,,,,,,657.8933087000041,657.9083354999893,658.6077944000135,658.6077944000135,659.1072940999875,659.0912355000037,659.0917927999981,659.1072940999875,659.4070473000174,659.6070167000289,659.6070167000289,659.9408695999882,space,1,0.3278555999859236,None,659.9451243000221,660.4561107000336,661.4392519000103,661.4553753000218,,,,,,,,,,,,,,,,,002,001,2025-04-27_17h55.46.012,Cued GoNogo Task,2024.2.4,60.02015476072989,2025-04-27 17h55.58.165496 +0200,
block/CondBlock2.xlsx,You are about to start a block of type 2 trials.,13,13,0,Go,Go,0.18,0.2,0.05,space,blue,vertical,space,250.80523489997722,None,space,1,0.4414184999768622,None,,,,0,1,1,1,0,13,13,13,661.4553753000218,,,,,,,,,,,,,,,,661.4394450000254,661.4553753000218,662.1546995000099,662.1546995000099,662.6541534999851,662.638871400035,662.639646399999,662.6541534999851,662.8374886999954,663.0208749999874,663.0208749999874,663.4710919000208,space,1,0.4414184999768622,None,663.4748084000312,663.9865942000179,664.9701754000271,664.9857752000098,,,,,,,,,,,,,,,,,002,001,2025-04-27_17h55.46.012,Cued GoNogo Task,2024.2.4,60.02015476072989,2025-04-27 17h55.58.165496 +0200,
block/CondBlock2.xlsx,You are about to start a block of type 2 trials.,14,14,0,Go,Go,0.13,0.2,0.05,space,green,vertical,space,250.80523489997722,None,space,1,0.2960626000422053,None,,,,0,1,1,1,0,14,14,14,664.9857752000098,,,,,,,,,,,,,,,,664.9704709000071,664.9857752000098,665.6853263999801,665.6853263999801,666.1848092,666.1688276000204,666.1694471000228,666.1848092,666.3178170000319,666.5012779000099,666.5012779000099,666.8026498000254,space,1,0.2960626000422053,None,666.8064906999934,667.3172521999804,668.3003082000068,668.316551099997,,,,,,,,,,,,,,,,,002,001,2025-04-27_17h55.46.012,Cued GoNogo Task,2024.2.4,60.02015476072989,2025-04-27 17h55.58.165496 +0200,
block/CondBlock2.xlsx,You are about to start a block of type 2 trials.,15,15,0,Go,Go,0.18,0.2,0.05,space,blue,vertical,space,250.80523489997722,None,space,1,0.3001706000068225,None,,,,0,1,1,1,0,15,15,15,668.316551099997,,,,,,,,,,,,,,,,668.3005481000291,668.316551099997,669.0158202000312,669.0158202000312,669.5152716999874,669.4992094000336,669.4996850999887,669.5152716999874,669.6987010000157,669.8818206000142,669.8818206000142,670.1845179999946,space,1,0.3001706000068225,None,670.1905076000257,670.6977099999785,671.6809780999902,671.6969100999995,,,,,,,,,,,,,,,,,002,001,2025-04-27_17h55.46.012,Cued GoNogo Task,2024.2.4,60.02015476072989,2025-04-27 17h55.58.165496 +0200,
block/CondBlock2.xlsx,You are about to start a block of type 2 trials.,16,16,0,Go,Go,0.24,0.2,0.05,space,green,vertical,space,250.80523489997722,None,space,1,0.3244591999682598,None,,,,0,1,1,1,0,16,16,16,671.6969100999995,,,,,,,,,,,,,,,,671.6812779000029,671.6969100999995,672.3964123000042,672.3964123000042,672.895917100017,672.8798672999837,672.8803659999976,672.895917100017,673.1457622000016,673.328839200025,673.328839200025,673.6627791000064,space,1,0.3244591999682598,None,673.6662981000263,674.1782600000151,675.1614446000312,675.1779557000264,,,,,,,,,,,,,,,,,002,001,2025-04-27_17h55.46.012,Cued GoNogo Task,2024.2.4,60.02015476072989,2025-04-27 17h55.58.165496 +0200,
block/CondBlock2.xlsx,You are about to start a block of type 2 trials.,17,17,0,Go,Go,0.26,0.2,0.05,space,blue,vertical,space,250.80523489997722,None,space,1,0.25949260004563257,None,,,,0,1,1,1,0,17,17,17,675.1779557000264,,,,,,,,,,,,,,,,675.1616681999876,675.1779557000264,675.8766885999939,675.8766885999939,676.376372400031,676.3602207999793,676.3606129999971,676.376372400031,676.642968500033,676.8261346999789,676.8261346999789,677.093512099993,space,1,0.25949260004563257,None,677.0971246000263,677.6086951000034,678.5918347000261,678.6079584999825,,,,,,,,,,,,,,,,,002,001,2025-04-27_17h55.46.012,Cued GoNogo Task,2024.2.4,60.02015476072989,2025-04-27 17h55.58.165496 +0200,
block/CondBlock2.xlsx,You are about to start a block of type 2 trials.,18,18,0,Go,Go,0.1,0.05,0.2,space,blue,horizontal,space,250.80523489997722,None,space,1,0.4030758999870159,None,,,,0,1,1,1,0,18,18,18,678.6079584999825,,,,,,,,,,,,,,,,678.5920872000279,678.6079584999825,679.3072520000278,679.3072520000278,679.8069799999939,679.7912608000333,679.7921862999792,679.8069799999939,679.9068490000209,680.1066400000127,680.1066400000127,680.5241073999787,space,1,0.4030758999870159,None,680.5279355000239,681.0392187000252,682.0223450000049,682.0383719999809,,,,,,,,,,,,,,,,,002,001,2025-04-27_17h55.46.012,Cued GoNogo Task,2024.2.4,60.02015476072989,2025-04-27 17h55.58.165496 +0200,
block/CondBlock2.xlsx,You are about to start a block of type 2 trials.,19,19,0,Go,Go,0.46,0.2,0.05,space,blue,vertical,space,250.80523489997722,None,space,1,0.42272090003825724,None,,,,0,1,1,1,0,19,19,19,682.0383719999809,,,,,,,,,,,,,,,,682.0225931000314,682.0383719999809,682.7378846000065,682.7378846000065,683.2374906000332,683.22147270001,683.2223090000334,683.2374906000332,683.7036439999938,683.8868559999974,683.8868559999974,684.3210195000283,space,1,0.42272090003825724,None,684.3247046000324,684.8361820999999,685.8193241999834,685.8352422000025,,,,,,,,,,,,,,,,,002,001,2025-04-27_17h55.46.012,Cued GoNogo Task,2024.2.4,60.02015476072989,2025-04-27 17h55.58.165496 +0200,
block/CondBlock2.xlsx,You are about to start a block of type 2 trials.,20,20,0,Go,Go,0.3,0.05,0.2,space,blue,horizontal,space,250.80523489997722,None,space,1,0.3435655999928713,None,,,,0,1,1,1,0,20,20,20,685.8352422000025,,,,,,,,,,,,,,,,685.819546099985,685.8352422000025,686.5346385000157,686.5346385000157,687.0341899000341,687.0182682999875,687.019094999996,687.0341899000341,687.3340415999992,687.533811900008,687.533811900008,687.8847947000177,space,1,0.3435655999928713,None,687.8881641000044,688.4001485999906,689.3991905000294,,,,,,,,,,,,,,,,,,002,001,2025-04-27_17h55.46.012,Cued GoNogo Task,2024.2.4,60.02015476072989,2025-04-27 17h55.58.165496 +0200,
block/CondBlock2.xlsx,You are about to start a block of type 2 trials.,21,21,0,Go,Go,0.23,0.05,0.2,space,green,horizontal,space,250.80523489997722,None,space,1,0.3668856999720447,None,,,,0,1,1,1,0,21,21,21,689.4157294000033,,,,,,,,,,,,,,,,689.3995345000294,689.4157294000033,690.0984722999856,690.1150014000013,690.598063500016,690.5817587000201,690.5821385000017,690.598063500016,690.8311811999884,691.0144388999906,691.0144388999906,691.3834916999913,space,1,0.3668856999720447,None,691.3871726000216,691.8970676999888,692.8807280000183,692.8962064000079,,,,,,,,,,,,,,,,,002,001,2025-04-27_17h55.46.012,Cued GoNogo Task,2024.2.4,60.02015476072989,2025-04-27 17h55.58.165496 +0200,
block/CondBlock2.xlsx,You are about to start a block of type 2 trials.,22,22,0,Go,Go,0.19,0.2,0.05,space,green,vertical,space,250.80523489997722,None,space,1,0.32686890003969893,None,,,,0,1,1,1,0,22,22,22,692.8962064000079,,,,,,,,,,,,,,,,692.8810911999899,692.8962064000079,693.595603600028,693.595603600028,694.0951153000351,694.0794295999804,694.0801704000332,694.0951153000351,694.2950510000228,694.4782162000192,694.4782162000192,694.8122478000005,space,1,0.32686890003969893,None,694.81655280001,695.3273990000016,696.3104922000202,696.3265616000281,,,,,,,,,,,,,,,,,002,001,2025-04-27_17h55.46.012,Cued GoNogo Task,2024.2.4,60.02015476072989,2025-04-27 17h55.58.165496 +0200,
block/CondBlock2.xlsx,You are about to start a block of type 2 trials.,23,23,0,NoGo,NoGo,0.41,0.2,0.05,none,blue,vertical,space,250.80523489997722,None,space,0,0.31370409997180104,None,,,,0,1,1,1,0,23,23,23,696.3265616000281,,,,,,,,,,,,,,,,696.3108726000064,696.3265616000281,697.0262549000327,697.0262549000327,697.5256315000006,697.5097382999957,697.5103939999826,697.5256315000006,697.9421584000229,698.1251792000257,698.1251792000257,698.4427350999904,space,0,0.31370409997180104,None,698.4477956999908,698.9579001999809,699.9410879000206,699.9568606999819,,,,,,,,,,,,,,,,,002,001,2025-04-27_17h55.46.012,Cued GoNogo Task,2024.2.4,60.02015476072989,2025-04-27 17h55.58.165496 +0200,
block/CondBlock2.xlsx,You are about to start a block of type 2 trials.,24,24,0,Go,Go,0.17,0.2,0.05,space,blue,vertical,space,250.80523489997722,None,space,1,0.3719194000004791,None,,,,0,1,1,1,0,24,24,24,699.9568606999819,,,,,,,,,,,,,,,,699.9413473000168,699.9568606999819,700.6565455999807,700.6565455999807,701.1560415999847,701.1398845000076,701.1403856999823,701.1560415999847,701.3391277000192,701.5224485999788,701.5224485999788,701.9067073999904,space,1,0.3719194000004791,None,701.9117312000017,702.421643299982,703.404740500031,703.4206709000282,,,,,,,,,,,,,,,,,002,001,2025-04-27_17h55.46.012,Cued GoNogo Task,2024.2.4,60.02015476072989,2025-04-27 17h55.58.165496 +0200,
block/CondBlock2.xlsx,You are about to start a block of type 2 trials.,25,25,0,Go,Go,0.27,0.05,0.2,space,blue,horizontal,space,250.80523489997722,None,space,1,0.3670026999898255,None,,,,0,1,1,1,0,25,25,25,703.4206709000282,,,,,,,,,,,,,,,,703.4050063000177,703.4206709000282,704.1202933000168,704.1202933000168,704.6199501000228,704.6042559000198,704.6051803000155,704.6199501000228,704.902936700033,705.0863395000342,705.0863395000342,705.4701350000105,space,1,0.3670026999898255,None,705.4730040000286,705.985420299985,706.968775300018,706.9844950999832,,,,,,,,,,,,,,,,,002,001,2025-04-27_17h55.46.012,Cued GoNogo Task,2024.2.4,60.02015476072989,2025-04-27 17h55.58.165496 +0200,
block/CondBlock2.xlsx,You are about to start a block of type 2 trials.,26,26,0,Go,Go,0.26,0.05,0.2,space,green,horizontal,space,250.80523489997722,None,space,1,0.3328442999627441,None,,,,0,1,1,1,0,26,26,26,706.9844950999832,,,,,,,,,,,,,,,,706.9690790000022,706.9844950999832,707.6840204999899,707.6840204999899,708.1835762999835,708.1675142000313,708.1680853000144,708.1835762999835,708.4499554000213,708.6332034000079,708.6332034000079,708.968123300001,space,1,0.3328442999627441,None,708.9724316999782,709.482387600001,710.4657057999866,710.4815972999786,,,,,,,,,,,,,,,,,002,001,2025-04-27_17h55.46.012,Cued GoNogo Task,2024.2.4,60.02015476072989,2025-04-27 17h55.58.165496 +0200,
block/CondBlock2.xlsx,You are about to start a block of type 2 trials.,27,27,0,Go,Go,0.22,0.2,0.05,space,green,vertical,space,250.80523489997722,None,space,1,0.41278349998174235,None,,,,0,1,1,1,0,27,27,27,710.4815972999786,,,,,,,,,,,,,,,,710.465944399999,710.4815972999786,711.1812008999987,711.1812008999987,711.6806998000247,711.6651126000215,711.665903199988,711.6806998000247,711.9137072000303,712.0970009000157,712.0970009000157,712.5144720000098,space,1,0.41278349998174235,None,712.5196810000343,713.0295959999785,714.0129438000149,714.0287550000357,,,,,,,,,,,,,,,,,002,001,2025-04-27_17h55.46.012,Cued GoNogo Task,2024.2.4,60.02015476072989,2025-04-27 17h55.58.165496 +0200,
block/CondBlock2.xlsx,You are about to start a block of type 2 trials.,28,28,0,Go,Go,0.19,0.05,0.2,space,blue,horizontal,space,250.80523489997722,None,space,1,0.39525030000368133,None,,,,0,1,1,1,0,28,28,28,714.0287550000357,,,,,,,,,,,,,,,,714.0132525999798,714.0287550000357,714.728212099988,714.728212099988,715.2277788000065,715.2121384000056,715.2127095999895,715.2277788000065,715.427519800025,715.610676500015,715.610676500015,716.0115412999876,space,1,0.39525030000368133,None,716.0153406999889,716.526921599987,717.5100485000294,717.5259673999972,,,,,,,,,,,,,,,,,002,001,2025-04-27_17h55.46.012,Cued GoNogo Task,2024.2.4,60.02015476072989,2025-04-27 17h55.58.165496 +0200,
block/CondBlock2.xlsx,You are about to start a block of type 2 trials.,29,29,0,Go,Go,0.18,0.05,0.2,space,blue,horizontal,space,250.80523489997722,None,space,1,0.3465847999905236,None,,,,0,1,1,1,0,29,29,29,717.5259673999972,,,,,,,,,,,,,,,,717.5103448000154,717.5259673999972,718.2252581000212,718.2252581000212,718.724798900017,718.7093848999939,718.7101692000288,718.724798900017,718.9082155000069,719.0913461000309,719.0913461000309,719.4423093000078,space,1,0.3465847999905236,None,719.4470214000321,719.9571946000215,720.9404806999955,720.9563374000136,,,,,,,,,,,,,,,,,002,001,2025-04-27_17h55.46.012,Cued GoNogo Task,2024.2.4,60.02015476072989,2025-04-27 17h55.58.165496 +0200,
block/CondBlock2.xlsx,You are about to start a block of type 2 trials.,30,30,0,NoGo,NoGo,0.23,0.2,0.05,none,blue,vertical,space,250.80523489997722,None,space,0,0.2664197999984026,None,,,,0,1,1,1,0,30,30,30,720.9563374000136,,,,,,,,,,,,,,,,720.940771900001,720.9563374000136,721.6559551000246,721.6559551000246,722.1554212000337,722.1398472000146,722.1405665000202,722.1554212000337,722.3885152000003,722.5715883999947,722.5715883999947,722.8402963000117,space,0,0.2664197999984026,None,722.8447885999922,723.3545075000147,724.3373887999915,724.3537403999944,,,,,,,,,,,,,,,,,002,001,2025-04-27_17h55.46.012,Cued GoNogo Task,2024.2.4,60.02015476072989,2025-04-27 17h55.58.165496 +0200,
block/CondBlock2.xlsx,You are about to start a block of type 2 trials.,31,31,0,Go,Go,0.43,0.2,0.05,space,green,vertical,space,250.80523489997722,None,space,1,0.2770158000057563,None,,,,0,1,1,1,0,31,31,31,724.3537403999944,,,,,,,,,,,,,,,,724.33761029999,724.3537403999944,725.0531268999912,725.0531268999912,725.5526140999864,725.5366435000324,725.5371947999811,725.5526140999864,725.9856433999958,726.1855136000086,726.1855136000086,726.4696876999806,space,1,0.2770158000057563,None,726.4737859999877,726.9848298000288,727.9680835999898,727.9839510000311,,,,,,,,,,,,,,,,,002,001,2025-04-27_17h55.46.012,Cued GoNogo Task,2024.2.4,60.02015476072989,2025-04-27 17h55.58.165496 +0200,
block/CondBlock2.xlsx,You are about to start a block of type 2 trials.,32,32,0,Go,Go,0.13,0.05,0.2,space,blue,horizontal,space,250.80523489997722,None,space,1,0.3306208999711089,None,,,,0,1,1,1,0,32,32,32,727.9839510000311,,,,,,,,,,,,,,,,727.968351699994,727.9839510000311,728.6835305999848,728.6835305999848,729.1829024000326,729.1668938000221,729.167401099985,729.1829024000326,729.3161203000345,729.4995430000126,729.4995430000126,729.8333095000125,space,1,0.3306208999711089,None,729.8362688000198,730.3488700999878,731.3318729000166,731.3478093000012,,,,,,,,,,,,,,,,,002,001,2025-04-27_17h55.46.012,Cued GoNogo Task,2024.2.4,60.02015476072989,2025-04-27 17h55.58.165496 +0200,
block/CondBlock2.xlsx,You are about to start a block of type 2 trials.,33,33,0,Go,Go,0.45,0.05,0.2,space,green,horizontal,space,250.80523489997722,None,space,1,0.2822393999667838,None,,,,0,1,1,1,0,33,33,33,731.3478093000012,,,,,,,,,,,,,,,,731.3321298999945,731.3478093000012,732.0472129000118,732.0472129000118,732.5467839000048,732.5308735999861,732.5314044000115,732.5467839000048,732.9964831999969,733.1962123999838,733.1962123999838,733.4811418000027,space,1,0.2822393999667838,None,733.4851569000166,733.9955978000071,734.979291399999,734.9950270000263,,,,,,,,,,,,,,,,,002,001,2025-04-27_17h55.46.012,Cued GoNogo Task,2024.2.4,60.02015476072989,2025-04-27 17h55.58.165496 +0200,
block/CondBlock2.xlsx,You are about to start a block of type 2 trials.,34,34,0,Go,Go,0.14,0.2,0.05,space,blue,vertical,space,250.80523489997722,None,space,1,0.37503459997242317,None,,,,0,1,1,1,0,34,34,34,734.9950270000263,,,,,,,,,,,,,,,,734.9796892000013,734.9950270000263,735.6943514000159,735.6943514000159,736.1939326000283,736.1783697000355,736.1792197999894,736.1939326000283,736.3436299000168,736.5270550000132,736.5270550000132,736.9107614000095,space,1,0.37503459997242317,None,736.9138906000298,737.426302900014,738.4095083000138,738.4253635000205,,,,,,,,,,,,,,,,,002,001,2025-04-27_17h55.46.012,Cued GoNogo Task,2024.2.4,60.02015476072989,2025-04-27 17h55.58.165496 +0200,
block/CondBlock2.xlsx,You are about to start a block of type 2 trials.,35,35,0,Go,Go,0.11,0.2,0.05,space,blue,vertical,space,250.80523489997722,None,space,1,0.39264259999617934,None,,,,0,1,1,1,0,35,35,35,738.4253635000205,,,,,,,,,,,,,,,,738.409780099988,738.4253635000205,739.1248896000325,739.1248896000325,739.6242861999781,739.6087413000059,739.6094444000046,739.6242861999781,739.7408785999869,739.9243277999922,739.9243277999922,740.3249840000062,space,1,0.39264259999617934,None,740.3302044000011,740.8400001000264,741.8232211000286,741.8392924999935,,,,,,,,,,,,,,,,,002,001,2025-04-27_17h55.46.012,Cued GoNogo Task,2024.2.4,60.02015476072989,2025-04-27 17h55.58.165496 +0200,
block/CondBlock2.xlsx,You are about to start a block of type 2 trials.,36,36,0,Go,Go,0.15,0.05,0.2,space,green,horizontal,space,250.80523489997722,None,space,1,0.3057983000180684,None,,,,0,1,1,1,0,36,36,36,741.8392924999935,,,,,,,,,,,,,,,,741.8234729000251,741.8392924999935,742.5388112000073,742.5388112000073,743.0383159000194,743.0226750000147,743.0236318000243,743.0383159000194,743.1880858999793,743.3880726000061,743.3880726000061,743.7055394999916,space,1,0.3057983000180684,None,743.7093497000169,744.2206008000067,745.2037782000261,745.2197595000034,,,,,,,,,,,,,,,,,002,001,2025-04-27_17h55.46.012,Cued GoNogo Task,2024.2.4,60.02015476072989,2025-04-27 17h55.58.165496 +0200,
block/CondBlock2.xlsx,You are about to start a block of type 2 trials.,37,37,0,Go,Go,0.15,0.2,0.05,space,green,vertical,space,250.80523489997722,None,space,1,0.3735935000004247,None,,,,0,1,1,1,0,37,37,37,745.2197595000034,,,,,,,,,,,,,,,,745.2040446000174,745.2197595000034,745.9191659000353,745.9191659000353,746.41876770003,746.4029795000097,746.4037079000263,746.41876770003,746.5687389000086,746.7685100000235,746.7685100000235,747.1530533999903,space,1,0.3735935000004247,None,747.1579759999877,747.6676137000322,748.6514870999963,748.6669244000223,,,,,,,,,,,,,,,,,002,001,2025-04-27_17h55.46.012,Cued GoNogo Task,2024.2.4,60.02015476072989,2025-04-27 17h55.58.165496 +0200,
block/CondBlock2.xlsx,You are about to start a block of type 2 trials.,38,38,0,NoGo,NoGo,0.14,0.2,0.05,none,green,vertical,space,250.80523489997722,None,None,1,,,,,,0,1,1,1,0,38,38,38,748.6669244000223,,,,,,,,,,,,,,,,748.6518170000054,748.6669244000223,749.3663488000166,749.3663488000166,749.8661393999937,749.8499146000249,749.850537499995,749.8661393999937,750.0158178000129,750.198973599996,750.198973599996,750.6826332000201,None,1,,,750.6847484000027,751.1986473000143,752.19771149999,,750.6985423000297,750.6985423000297,,,,,,,,,,,,,,,002,001,2025-04-27_17h55.46.012,Cued GoNogo Task,2024.2.4,60.02015476072989,2025-04-27 17h55.58.165496 +0200,
block/CondBlock2.xlsx,You are about to start a block of type 2 trials.,39,39,0,Go,Go,0.46,0.2,0.05,space,green,vertical,space,250.80523489997722,None,space,1,0.3753100000321865,None,,,,0,1,1,1,0,39,39,39,752.2139617999783,,,,,,,,,,,,,,,,752.1981220000307,752.2139617999783,752.8968722000136,752.9135367000126,753.3963569999905,753.3807170999935,753.3814928000211,753.3963569999905,753.8625767999911,754.0457099000341,754.0457099000341,754.4298684999812,space,1,0.3753100000321865,None,754.4335259000072,754.9449968999834,755.9282323999796,755.9443140000221,,,,,,,,,,,,,,,,,002,001,2025-04-27_17h55.46.012,Cued GoNogo Task,2024.2.4,60.02015476072989,2025-04-27 17h55.58.165496 +0200,
block/CondBlock2.xlsx,You are about to start a block of type 2 trials.,40,40,0,Go,Go,0.5,0.05,0.2,space,blue,horizontal,space,250.80523489997722,None,space,1,0.41042060003383085,None,,,,0,1,1,1,0,40,40,40,755.9443140000221,,,,,,,,,,,,,,,,755.9284798000008,755.9443140000221,756.6438633999787,756.6438633999787,757.1432650000206,757.1273723000195,757.1279607000179,757.1432650000206,757.6429145000293,757.8428188000107,757.8428188000107,758.2605361000169,space,1,0.41042060003383085,None,758.2648803000338,758.7753264000057,759.7585199000314,759.7745244000107,,,,,,,,,,,,,,,,,002,001,2025-04-27_17h55.46.012,Cued GoNogo Task,2024.2.4,60.02015476072989,2025-04-27 17h55.58.165496 +0200,
block/CondBlock2.xlsx,You are about to start a block of type 2 trials.,41,41,0,Go,Go,0.16,0.05,0.2,space,green,horizontal,space,250.80523489997722,None,space,1,0.3389350000070408,None,,,,0,1,1,1,0,41,41,41,759.7745244000107,,,,,,,,,,,,,,,,759.758791100001,759.7745244000107,760.4738554999931,760.4738554999931,760.9734474000288,760.957490300003,760.9580688999849,760.9734474000288,761.1399512999924,761.3233139999793,761.3233139999793,761.6741995000048,space,1,0.3389350000070408,None,761.6795895000105,762.1891100000357,763.172424599994,763.188266800018,,,,,,,,,,,,,,,,,002,001,2025-04-27_17h55.46.012,Cued GoNogo Task,2024.2.4,60.02015476072989,2025-04-27 17h55.58.165496 +0200,
