Block,blockMsg,thisN,thisTrialN,thisRepN,CueType,StimType,CueTime,Stim_Height,Stim_Width,CRESP,Color,Orientation,key_resp_2.keys,key_resp_2.rt,key_resp_2.duration,Key_Resp.keys,Key_Resp.corr,Key_Resp.rt,Key_Resp.duration,key_resp_3.keys,key_resp_3.rt,key_resp_3.duration,Blocks.thisRepN,Blocks.thisTrialN,Blocks.thisN,Blocks.thisIndex,Trials.thisRepN,Trials.thisTrialN,Trials.thisN,Trials.thisIndex,thisRow.t,notes,TaskIntro.started,fixation.started,key_resp.started,TaskIntro.stopped,key_resp.keys,key_resp.rt,key_resp.duration,BlockStart.started,BlockStart_Msg.started,key_resp_2.started,BlockStart.stopped,Blocks.key_resp_2.keys,Blocks.key_resp_2.rt,Blocks.key_resp_2.duration,Fixation.started,FixationPhase.started,Blank.started,FixationPhase.stopped,Blank.stopped,Fixation.stopped,Trial.started,Cue.started,Cue.stopped,GoNogo_Stim.started,Key_Resp.started,Trial.stopped,Trials.Key_Resp.keys,Trials.Key_Resp.corr,Trials.Key_Resp.rt,Trials.Key_Resp.duration,Feedback.started,Feedback_Present.started,Feedback_Present.stopped,Feedback.stopped,GoNogo_Stim.stopped,Key_Resp.stopped,BlockEnd.started,BlockEnd_Msg.started,key_resp_3.started,BlockEnd.stopped,Blocks.key_resp_3.keys,Blocks.key_resp_3.rt,Blocks.key_resp_3.duration,TaskEnd.started,ThankYou.started,key_resp_4.started,TaskEnd.stopped,key_resp_4.keys,key_resp_4.rt,key_resp_4.duration,participant,session,date,expName,psychopyVersion,frameRate,expStart,
,,,,,,,,,,,,,,,,,,,,,,,,,,,,,,,,,0.0019309999188408256,0.005057199974544346,0.005057199974544346,11.819021299947053,space,11.742647100007161,None,,,,,,,,,,,,,,,,,,,,,,,,,,,,,,,,,,,,,,,,,,,,000,002,2025-05-03_14h14.50.957,Cued GoNogo Task,2024.2.4,60.022352354468,2025-05-03 14h15.01.125332 +0200,
block/CondBlock1.xlsx,You are about to start a block of type 1 trials.,0,0,0,Go,Go,0.13,0.05,0.2,space,blue,horizontal,space,1.0359609000151977,None,space,1,0.27606880001258105,None,,,,0,0,0,0,0,0,0,0,12.94951950001996,,,,,,,,,11.828174100024626,11.83071170002222,11.83071170002222,12.876516200019978,space,1.0359609000151977,None,12.946828400017694,12.94951950001996,13.591551200021058,13.658004599972628,14.091011799988337,14.075197099940851,14.075900799944066,14.091011799988337,14.224249099963345,14.407422399963252,14.407422399963252,14.692013500025496,space,1,0.27606880001258105,None,14.70564259996172,15.20685489999596,16.205998999997973,16.190153499948792,,,,,,,,,,,,,,,,,000,002,2025-05-03_14h14.50.957,Cued GoNogo Task,2024.2.4,60.022352354468,2025-05-03 14h15.01.125332 +0200,
block/CondBlock1.xlsx,You are about to start a block of type 1 trials.,1,1,0,NoGo,NoGo,0.43,0.05,0.2,none,blue,horizontal,space,1.0359609000151977,None,space,0,0.2376961000263691,None,,,,0,0,0,0,0,1,1,1,16.205998999997973,,,,,,,,,,,,,,,,16.190474699949846,16.205998999997973,16.90530260000378,16.90530260000378,17.40484979993198,17.389067200012505,17.38965239992831,17.40484979993198,17.837860699975863,18.021124699967913,18.021124699967913,18.272554100025445,space,0,0.2376961000263691,None,18.291610899963416,18.787278599920683,19.786340599996038,19.77055679995101,,,,,,,,,,,,,,,,,000,002,2025-05-03_14h14.50.957,Cued GoNogo Task,2024.2.4,60.022352354468,2025-05-03 14h15.01.125332 +0200,
block/CondBlock1.xlsx,You are about to start a block of type 1 trials.,2,2,0,Go,Go,0.12,0.2,0.05,space,blue,vertical,space,1.0359609000151977,None,space,1,0.3813627000199631,None,,,,0,0,0,0,0,2,2,2,19.786340599996038,,,,,,,,,,,,,,,,19.770874699926935,19.786340599996038,20.485702399979346,20.485702399979346,20.98550880001858,20.9695579999825,20.97059739998076,20.98550880001858,21.118615199928172,21.301795799983665,21.301795799983665,21.686010399949737,space,1,0.3813627000199631,None,21.691140600014478,22.201078500016592,23.20048419991508,23.184220799943432,,,,,,,,,,,,,,,,,000,002,2025-05-03_14h14.50.957,Cued GoNogo Task,2024.2.4,60.022352354468,2025-05-03 14h15.01.125332 +0200,
block/CondBlock1.xlsx,You are about to start a block of type 1 trials.,3,3,0,NoGo,NoGo,0.18,0.2,0.05,none,green,vertical,space,1.0359609000151977,None,space,0,0.253413200029172,None,,,,0,0,0,0,0,3,3,3,23.20048419991508,,,,,,,,,,,,,,,,23.184488600003533,23.20048419991508,23.8993565000128,23.8993565000128,24.399218300008215,24.38351529999636,24.38429959991481,24.399218300008215,24.582432199968025,24.765582200023346,24.765582200023346,25.033019099966623,space,0,0.253413200029172,None,25.039877999923192,25.54829039995093,26.547446099924855,26.53165859996807,,,,,,,,,,,,,,,,,000,002,2025-05-03_14h14.50.957,Cued GoNogo Task,2024.2.4,60.022352354468,2025-05-03 14h15.01.125332 +0200,
block/CondBlock1.xlsx,You are about to start a block of type 1 trials.,4,4,0,Go,Go,0.24,0.05,0.2,space,green,horizontal,space,1.0359609000151977,None,space,1,0.23996230005286634,None,,,,0,0,0,0,0,4,4,4,26.547446099924855,,,,,,,,,,,,,,,,26.531930599943735,26.547446099924855,27.246933799935505,27.246933799935505,27.746536999940872,27.730390499928035,27.730896799941547,27.746536999940872,27.996305999928154,28.17951589997392,28.17951589997392,28.43002929992508,space,1,0.23996230005286634,None,28.434392899973318,28.945467100013047,29.944665599963628,29.928509299992584,,,,,,,,,,,,,,,,,000,002,2025-05-03_14h14.50.957,Cued GoNogo Task,2024.2.4,60.022352354468,2025-05-03 14h15.01.125332 +0200,
block/CondBlock1.xlsx,You are about to start a block of type 1 trials.,5,5,0,Go,Go,0.21,0.05,0.2,space,blue,horizontal,space,1.0359609000151977,None,space,1,0.24377159995492548,None,,,,0,0,0,0,0,5,5,5,29.944665599963628,,,,,,,,,,,,,,,,29.92875299998559,29.944665599963628,30.64405529992655,30.64405529992655,31.143607200006954,31.127722300007008,31.128585599944927,31.143607200006954,31.36028639995493,31.5433800999308,31.5433800999308,31.794925599941052,space,1,0.24377159995492548,None,31.800589799997397,32.309459100011736,33.3085468999343,33.292783999932,,,,,,,,,,,,,,,,,000,002,2025-05-03_14h14.50.957,Cued GoNogo Task,2024.2.4,60.022352354468,2025-05-03 14h15.01.125332 +0200,
block/CondBlock1.xlsx,You are about to start a block of type 1 trials.,6,6,0,Go,Go,0.11,0.2,0.05,space,blue,vertical,space,1.0359609000151977,None,space,1,0.3163004000671208,None,,,,0,0,0,0,0,6,6,6,33.3085468999343,,,,,,,,,,,,,,,,33.29313609993551,33.3085468999343,34.00803799997084,34.00803799997084,34.50755079998635,34.49142390000634,34.49192449997645,34.50755079998635,34.6240483999718,34.807336000027135,34.807336000027135,35.12542990001384,space,1,0.3163004000671208,None,35.12834109994583,35.64018699992448,,36.639303599949926,,,,,,,,,,,,,,,,,000,002,2025-05-03_14h14.50.957,Cued GoNogo Task,2024.2.4,60.022352354468,2025-05-03 14h15.01.125332 +0200,
block/CondBlock1.xlsx,You are about to start a block of type 1 trials.,7,7,0,Go,Go,0.15,0.2,0.05,space,blue,vertical,space,1.0359609000151977,None,space,1,0.2555555000435561,None,,,,0,0,0,0,0,7,7,7,36.65576170000713,,,,,,,,,,,,,,,,36.63962559995707,36.65576170000713,37.33872190001421,37.355454699951224,37.83808469993528,37.822250599972904,37.82287969999015,37.83808469993528,37.988019399927,38.18776929995511,38.18776929995511,38.455397599958815,space,1,0.2555555000435561,None,38.46104859991465,38.970529999933206,39.9695848999545,39.95361440000124,,,,,,,,,,,,,,,,,000,002,2025-05-03_14h14.50.957,Cued GoNogo Task,2024.2.4,60.022352354468,2025-05-03 14h15.01.125332 +0200,
block/CondBlock1.xlsx,You are about to start a block of type 1 trials.,8,8,0,NoGo,NoGo,0.3,0.05,0.2,none,blue,horizontal,space,1.0359609000151977,None,space,0,0.2145285999868065,None,,,,0,0,0,0,0,8,8,8,39.9695848999545,,,,,,,,,,,,,,,,39.953849399928,39.9695848999545,40.66907830000855,40.66907830000855,41.168870399938896,41.15324269991834,41.154258999973536,41.168870399938896,41.46874379995279,41.66831069998443,41.66831069998443,41.88594910001848,space,0,0.2145285999868065,None,41.89070139999967,42.40106029994786,43.4002050999552,43.38446819991805,,,,,,,,,,,,,,,,,000,002,2025-05-03_14h14.50.957,Cued GoNogo Task,2024.2.4,60.022352354468,2025-05-03 14h15.01.125332 +0200,
block/CondBlock1.xlsx,You are about to start a block of type 1 trials.,9,9,0,NoGo,NoGo,0.17,0.05,0.2,none,blue,horizontal,space,1.0359609000151977,None,None,1,,,,,,0,0,0,0,0,9,9,9,43.4002050999552,,,,,,,,,,,,,,,,43.38471719995141,43.4002050999552,44.09972049994394,44.09972049994394,44.59914810000919,44.58360539993737,44.584440000006,44.59914810000919,44.78261809994001,44.96562179992907,44.96562179992907,45.449312299955636,None,1,,,45.451239999965765,45.9648889999371,46.964095199946314,46.94844690000173,45.465223699924536,45.465223699924536,,,,,,,,,,,,,,,000,002,2025-05-03_14h14.50.957,Cued GoNogo Task,2024.2.4,60.022352354468,2025-05-03 14h15.01.125332 +0200,
block/CondBlock1.xlsx,You are about to start a block of type 1 trials.,10,10,0,NoGo,NoGo,0.26,0.2,0.05,none,green,vertical,space,1.0359609000151977,None,space,0,0.2700401999754831,None,,,,0,0,0,0,0,10,10,10,46.964095199946314,,,,,,,,,,,,,,,,46.94886270002462,46.964095199946314,47.66344269993715,47.66344269993715,48.162969999946654,48.1471735999221,48.14789819996804,48.162969999946654,48.42926829995122,48.612468499923125,48.612468499923125,48.89678810001351,space,0,0.2700401999754831,None,48.90020929998718,49.41173059993889,50.411020900006406,50.39555179991294,,,,,,,,,,,,,,,,,000,002,2025-05-03_14h14.50.957,Cued GoNogo Task,2024.2.4,60.022352354468,2025-05-03 14h15.01.125332 +0200,
block/CondBlock1.xlsx,You are about to start a block of type 1 trials.,11,11,0,Go,Go,0.27,0.05,0.2,space,green,horizontal,space,1.0359609000151977,None,space,1,0.2941978999879211,None,,,,0,0,0,0,0,11,11,11,50.411020900006406,,,,,,,,,,,,,,,,50.39580619998742,50.411020900006406,51.110548199969344,51.110548199969344,51.61025949998293,51.59464459994342,51.59536259993911,51.61025949998293,51.893404399976134,52.076422499958426,52.076422499958426,52.377275399980135,space,1,0.2941978999879211,None,52.3810137999244,52.89232450001873,53.8915938999271,53.87562629999593,,,,,,,,,,,,,,,,,000,002,2025-05-03_14h14.50.957,Cued GoNogo Task,2024.2.4,60.022352354468,2025-05-03 14h15.01.125332 +0200,
block/CondBlock1.xlsx,You are about to start a block of type 1 trials.,12,12,0,Go,Go,0.16,0.2,0.05,space,green,vertical,space,1.0359609000151977,None,space,1,0.2757149999961257,None,,,,0,0,0,0,0,12,12,12,53.8915938999271,,,,,,,,,,,,,,,,53.875848099938594,53.8915938999271,54.59100249991752,54.59100249991752,55.09057899995241,55.07496140000876,55.07552970002871,55.09057899995241,55.25733529997524,55.44059140002355,55.44059140002355,55.72456679993775,space,1,0.2757149999961257,None,55.72885469999164,56.23991300002672,,57.23926289996598,,,,,,,,,,,,,,,,,000,002,2025-05-03_14h14.50.957,Cued GoNogo Task,2024.2.4,60.022352354468,2025-05-03 14h15.01.125332 +0200,
block/CondBlock1.xlsx,You are about to start a block of type 1 trials.,13,13,0,Go,Go,0.13,0.2,0.05,space,green,vertical,space,1.0359609000151977,None,space,1,0.3936741000507027,None,,,,0,0,0,0,0,13,13,13,57.2553946999833,,,,,,,,,,,,,,,,57.239573600003496,57.2553946999833,57.93835740000941,57.954889399930835,58.43790369993076,58.42196920001879,58.42257409996819,58.43790369993076,58.571052499930374,58.75445409992244,58.75445409992244,59.15516740002204,space,1,0.3936741000507027,None,59.15880269999616,59.67025399999693,60.66925639996771,60.65342939994298,,,,,,,,,,,,,,,,,000,002,2025-05-03_14h14.50.957,Cued GoNogo Task,2024.2.4,60.022352354468,2025-05-03 14h15.01.125332 +0200,
block/CondBlock1.xlsx,You are about to start a block of type 1 trials.,14,14,0,Go,Go,0.12,0.05,0.2,space,blue,horizontal,space,1.0359609000151977,None,space,1,0.30671280005481094,None,,,,0,0,0,0,0,14,14,14,60.66925639996771,,,,,,,,,,,,,,,,60.653690699953586,60.66925639996771,61.36875060002785,61.36875060002785,61.868387799942866,61.85222699993756,61.85272969992366,61.868387799942866,62.00162759993691,62.18466059991624,62.18466059991624,62.50245239993092,space,1,0.30671280005481094,None,62.50723599991761,63.017433199915104,64.01666770002339,64.00043889996596,,,,,,,,,,,,,,,,,000,002,2025-05-03_14h14.50.957,Cued GoNogo Task,2024.2.4,60.022352354468,2025-05-03 14h15.01.125332 +0200,
block/CondBlock1.xlsx,You are about to start a block of type 1 trials.,15,15,0,Go,Go,0.45,0.2,0.05,space,blue,vertical,space,1.0359609000151977,None,space,1,0.2830973999807611,None,,,,0,0,0,0,0,15,15,15,64.01666770002339,,,,,,,,,,,,,,,,64.00083479995374,64.01666770002339,64.7159603999462,64.7159603999462,65.21568399993703,65.19999659992754,65.20092229999136,65.21568399993703,65.66543029993773,65.865135799977,65.865135799977,66.15112499997485,space,1,0.2830973999807611,None,66.15647189994343,66.66439099994022,67.66357909992803,67.64792729995679,,,,,,,,,,,,,,,,,000,002,2025-05-03_14h14.50.957,Cued GoNogo Task,2024.2.4,60.022352354468,2025-05-03 14h15.01.125332 +0200,
block/CondBlock1.xlsx,You are about to start a block of type 1 trials.,16,16,0,NoGo,NoGo,0.14,0.2,0.05,none,green,vertical,space,1.0359609000151977,None,None,1,,,,,,0,0,0,0,0,16,16,16,67.66357909992803,,,,,,,,,,,,,,,,67.64815269992687,67.66357909992803,68.36307770002168,68.36307770002168,68.8628308000043,68.84703750000335,68.84785329992883,68.8628308000043,69.01255550002679,69.1957165999338,69.1957165999338,69.67948199994862,None,1,,,69.68222850002348,70.19489739998244,71.19414289994165,71.17811049998272,69.69531239999924,69.69531239999924,,,,,,,,,,,,,,,000,002,2025-05-03_14h14.50.957,Cued GoNogo Task,2024.2.4,60.022352354468,2025-05-03 14h15.01.125332 +0200,
block/CondBlock1.xlsx,You are about to start a block of type 1 trials.,17,17,0,Go,Go,0.12,0.05,0.2,space,green,horizontal,space,1.0359609000151977,None,space,1,0.26116889994591475,None,,,,0,0,0,0,0,17,17,17,71.19414289994165,,,,,,,,,,,,,,,,71.17835519998334,71.19414289994165,71.89362959994469,71.89362959994469,72.39298270002473,72.37701039994135,72.377609499963,72.39298270002473,72.52628190000542,72.70944300002884,72.70944300002884,72.97692189994268,space,1,0.26116889994591475,None,72.98145399999339,73.49212439998519,74.4913161000004,74.47590179997496,,,,,,,,,,,,,,,,,000,002,2025-05-03_14h14.50.957,Cued GoNogo Task,2024.2.4,60.022352354468,2025-05-03 14h15.01.125332 +0200,
block/CondBlock1.xlsx,You are about to start a block of type 1 trials.,18,18,0,Go,Go,0.47,0.2,0.05,space,blue,vertical,space,1.0359609000151977,None,space,1,0.3186378999380395,None,,,,0,0,0,0,0,18,18,18,74.4913161000004,,,,,,,,,,,,,,,,74.4762320999289,74.4913161000004,75.19077260000631,75.19077260000631,75.69029739999678,75.67431869998109,75.67487889993936,75.69029739999678,76.17328410001937,76.35648209997453,76.35648209997453,76.69125249993522,space,1,0.3186378999380395,None,76.69649909995496,77.20568749995437,78.20499739993829,78.18932190001942,,,,,,,,,,,,,,,,,000,002,2025-05-03_14h14.50.957,Cued GoNogo Task,2024.2.4,60.022352354468,2025-05-03 14h15.01.125332 +0200,
block/CondBlock1.xlsx,You are about to start a block of type 1 trials.,19,19,0,Go,Go,0.18,0.2,0.05,space,green,vertical,space,1.0359609000151977,None,space,1,0.2883694999618456,None,,,,0,0,0,0,0,19,19,19,78.20499739993829,,,,,,,,,,,,,,,,78.18975459993817,78.20499739993829,78.90434499992989,78.90434499992989,79.40417789993808,79.38811790000182,79.38882549991831,79.40417789993808,79.58707000000868,79.78685129992664,79.78685129992664,80.0877658999525,space,1,0.2883694999618456,None,80.09405559999868,80.60296469996683,81.60220909991767,81.58655489992816,,,,,,,,,,,,,,,,,000,002,2025-05-03_14h14.50.957,Cued GoNogo Task,2024.2.4,60.022352354468,2025-05-03 14h15.01.125332 +0200,
block/CondBlock1.xlsx,You are about to start a block of type 1 trials.,20,20,0,Go,Go,0.19,0.2,0.05,space,blue,vertical,space,1.0359609000151977,None,space,1,0.2992864999687299,None,,,,0,0,0,0,0,20,20,20,81.60220909991767,,,,,,,,,,,,,,,,81.58685289998539,81.60220909991767,82.30160190002061,82.30160190002061,82.80128150002565,82.78544839995448,82.78632369998377,82.80128150002565,83.001058200025,83.18408259993885,83.18408259993885,83.48609619995113,space,1,0.2992864999687299,None,83.48998149996623,84.00029220001306,84.99930519994814,84.98401070002001,,,,,,,,,,,,,,,,,000,002,2025-05-03_14h14.50.957,Cued GoNogo Task,2024.2.4,60.022352354468,2025-05-03 14h15.01.125332 +0200,
block/CondBlock1.xlsx,You are about to start a block of type 1 trials.,21,21,0,Go,Go,0.14,0.2,0.05,space,blue,vertical,space,1.0359609000151977,None,space,1,0.312406099983491,None,,,,0,0,0,0,0,21,21,21,84.99930519994814,,,,,,,,,,,,,,,,84.98443119996227,84.99930519994814,85.6988489999203,85.6988489999203,86.1983162999386,86.18236059998162,86.18294159998186,86.1983162999386,86.34833950002212,86.53140689991415,86.53140689991415,86.84903739998117,space,1,0.312406099983491,None,86.85314339993056,87.36407100001816,88.36317989998497,88.34732269996312,,,,,,,,,,,,,,,,,000,002,2025-05-03_14h14.50.957,Cued GoNogo Task,2024.2.4,60.022352354468,2025-05-03 14h15.01.125332 +0200,
block/CondBlock1.xlsx,You are about to start a block of type 1 trials.,22,22,0,Go,Go,0.15,0.2,0.05,space,blue,vertical,space,1.0359609000151977,None,space,1,0.30034439999144524,None,,,,0,0,0,0,0,22,22,22,88.36317989998497,,,,,,,,,,,,,,,,88.34761479997542,88.36317989998497,89.06279679993168,89.06279679993168,89.56237509998027,89.54620029998478,89.54669889993966,89.56237509998027,89.7122512999922,89.91191809996963,89.91191809996963,90.2298257999355,space,1,0.30034439999144524,None,90.23380789998919,90.74473349994514,91.74368199997116,91.72793379996438,,,,,,,,,,,,,,,,,000,002,2025-05-03_14h14.50.957,Cued GoNogo Task,2024.2.4,60.022352354468,2025-05-03 14h15.01.125332 +0200,
block/CondBlock1.xlsx,You are about to start a block of type 1 trials.,23,23,0,Go,Go,0.23,0.05,0.2,space,green,horizontal,space,1.0359609000151977,None,space,1,0.2915862000081688,None,,,,0,0,0,0,0,23,23,23,91.74368199997116,,,,,,,,,,,,,,,,91.7282229999546,91.74368199997116,92.44344519998413,92.44344519998413,92.94277259998489,92.92679409997072,92.92739780002739,92.94277259998489,93.17594919994008,93.3592678999994,93.3592678999994,93.66013929992914,space,1,0.2915862000081688,None,93.66485539998394,94.1750774999382,95.17447059997357,95.15876050002407,,,,,,,,,,,,,,,,,000,002,2025-05-03_14h14.50.957,Cued GoNogo Task,2024.2.4,60.022352354468,2025-05-03 14h15.01.125332 +0200,
block/CondBlock1.xlsx,You are about to start a block of type 1 trials.,24,24,0,Go,Go,0.2,0.2,0.05,space,blue,vertical,space,1.0359609000151977,None,space,1,0.2697825999930501,None,,,,0,0,0,0,0,24,24,24,95.17447059997357,,,,,,,,,,,,,,,,95.15914759994484,95.17447059997357,95.87366869999096,95.87366869999096,96.3734853999922,96.35781750001479,96.35854699998163,96.3734853999922,96.57312549999915,96.77313310001045,96.77313310001045,97.05746979999822,space,1,0.2697825999930501,None,97.06199019995984,97.57259430002887,,98.57165249995887,,,,,,,,,,,,,,,,,000,002,2025-05-03_14h14.50.957,Cued GoNogo Task,2024.2.4,60.022352354468,2025-05-03 14h15.01.125332 +0200,
block/CondBlock1.xlsx,You are about to start a block of type 1 trials.,25,25,0,Go,Go,0.15,0.2,0.05,space,blue,vertical,space,1.0359609000151977,None,space,1,0.30673459998797625,None,,,,0,0,0,0,0,25,25,25,98.58824219997041,,,,,,,,,,,,,,,,98.57195469993167,98.58824219997041,99.27095559996087,99.28758479992393,99.77058949996717,99.75447249994613,99.75510950002354,99.77058949996717,99.92053899995517,100.12037409993354,100.12037409993354,100.43816599994898,space,1,0.30673459998797625,None,100.44265270000324,100.9529118000064,101.9521236999426,101.93624019995332,,,,,,,,,,,,,,,,,000,002,2025-05-03_14h14.50.957,Cued GoNogo Task,2024.2.4,60.022352354468,2025-05-03 14h15.01.125332 +0200,
block/CondBlock1.xlsx,You are about to start a block of type 1 trials.,26,26,0,NoGo,NoGo,0.2,0.2,0.05,none,blue,vertical,space,1.0359609000151977,None,None,1,,,,,,0,0,0,0,0,26,26,26,101.9521236999426,,,,,,,,,,,,,,,,101.93655470001977,101.9521236999426,102.65152159996796,102.65152159996796,103.15112039993983,103.13498430000618,103.13559710001573,103.15112039993983,103.35091219993774,103.5507000000216,103.5507000000216,104.03428989998065,None,1,,,104.03619409992825,104.54996809992008,105.54929549992085,105.53314079996198,104.05023189994972,104.05023189994972,,,,,,,,,,,,,,,000,002,2025-05-03_14h14.50.957,Cued GoNogo Task,2024.2.4,60.022352354468,2025-05-03 14h15.01.125332 +0200,
block/CondBlock1.xlsx,You are about to start a block of type 1 trials.,27,27,0,Go,Go,0.29,0.05,0.2,space,green,horizontal,space,1.0359609000151977,None,space,1,0.2764312999788672,None,,,,0,0,0,0,0,27,27,27,105.54929549992085,,,,,,,,,,,,,,,,105.53343269997276,105.54929549992085,106.24870509991888,106.24870509991888,106.74804979993496,106.73210159991868,106.73254180001095,106.74804979993496,107.04798819997814,107.23124290001579,107.23124290001579,107.5156479999423,space,1,0.2764312999788672,None,107.52178299997468,108.0305578999687,109.02953089994844,109.01365959993564,,,,,,,,,,,,,,,,,000,002,2025-05-03_14h14.50.957,Cued GoNogo Task,2024.2.4,60.022352354468,2025-05-03 14h15.01.125332 +0200,
block/CondBlock1.xlsx,You are about to start a block of type 1 trials.,28,28,0,Go,Go,0.24,0.2,0.05,space,blue,vertical,space,1.0359609000151977,None,space,1,0.34961969999130815,None,,,,0,0,0,0,0,28,28,28,109.02953089994844,,,,,,,,,,,,,,,,109.01396669994574,109.02953089994844,109.72922059998382,109.72922059998382,110.22864679992199,110.2126103999326,110.21314289991278,110.22864679992199,110.47844219999388,110.66166129999328,110.66166129999328,111.01338050002232,space,1,0.34961969999130815,None,111.01770209998358,111.52768119995017,112.52663259999827,112.51096550002694,,,,,,,,,,,,,,,,,000,002,2025-05-03_14h14.50.957,Cued GoNogo Task,2024.2.4,60.022352354468,2025-05-03 14h15.01.125332 +0200,
block/CondBlock1.xlsx,You are about to start a block of type 1 trials.,29,29,0,Go,Go,0.15,0.05,0.2,space,green,horizontal,space,1.0359609000151977,None,space,1,0.30318290006835014,None,,,,0,0,0,0,0,29,29,29,112.52663259999827,,,,,,,,,,,,,,,,112.5111893999856,112.52663259999827,113.22625770000741,113.22625770000741,113.7258193999296,113.70958789996803,113.70996120001655,113.7258193999296,113.87557079992257,114.07551449991297,114.07551449991297,114.39343779999763,space,1,0.30318290006835014,None,114.39752679993398,114.908082799986,115.90737669996452,115.89142609992996,,,,,,,,,,,,,,,,,000,002,2025-05-03_14h14.50.957,Cued GoNogo Task,2024.2.4,60.022352354468,2025-05-03 14h15.01.125332 +0200,
block/CondBlock1.xlsx,You are about to start a block of type 1 trials.,30,30,0,Go,Go,0.23,0.2,0.05,space,green,vertical,space,1.0359609000151977,None,space,1,0.3525795000605285,None,,,,0,0,0,0,0,30,30,30,115.90737669996452,,,,,,,,,,,,,,,,115.89182239992078,115.90737669996452,116.60686139995232,116.60686139995232,117.10636869992595,117.09120569995139,117.09219130000565,117.10636869992595,117.33940029994119,117.52255069999956,117.52255069999956,117.89029739995021,space,1,0.3525795000605285,None,117.89426670002285,118.40543209994212,119.40436109993607,119.3885067999363,,,,,,,,,,,,,,,,,000,002,2025-05-03_14h14.50.957,Cued GoNogo Task,2024.2.4,60.022352354468,2025-05-03 14h15.01.125332 +0200,
block/CondBlock1.xlsx,You are about to start a block of type 1 trials.,31,31,0,Go,Go,0.28,0.2,0.05,space,green,vertical,space,1.0359609000151977,None,space,1,0.3252062000101432,None,,,,0,0,0,0,0,31,31,31,119.40436109993607,,,,,,,,,,,,,,,,119.38880539999809,119.40436109993607,120.10389579995535,120.10389579995535,120.60354159993585,120.58739150001202,120.58811779995449,120.60354159993585,120.88656999997329,121.06981949997135,121.06981949997135,121.40471089992207,space,1,0.3252062000101432,None,121.4099432999501,121.91902229993138,122.91817119996995,122.90244079998229,,,,,,,,,,,,,,,,,000,002,2025-05-03_14h14.50.957,Cued GoNogo Task,2024.2.4,60.022352354468,2025-05-03 14h15.01.125332 +0200,
block/CondBlock1.xlsx,You are about to start a block of type 1 trials.,32,32,0,Go,Go,0.19,0.2,0.05,space,green,vertical,space,1.0359609000151977,None,space,1,0.3498444000724703,None,,,,0,0,0,0,0,32,32,32,122.91817119996995,,,,,,,,,,,,,,,,122.90290180000011,122.91817119996995,123.61757709993981,123.61757709993981,124.11710429994855,124.10128820000682,124.10195849998854,124.11710429994855,124.31704230001196,124.50040769996122,124.50040769996122,124.86797669995576,space,1,0.3498444000724703,None,124.87201900000218,125.38287279999349,126.38191039999947,126.36655939999036,,,,,,,,,,,,,,,,,000,002,2025-05-03_14h14.50.957,Cued GoNogo Task,2024.2.4,60.022352354468,2025-05-03 14h15.01.125332 +0200,
block/CondBlock1.xlsx,You are about to start a block of type 1 trials.,33,33,0,Go,Go,0.12,0.2,0.05,space,green,vertical,space,1.0359609000151977,None,space,1,0.25038330000825226,None,,,,0,0,0,0,0,33,33,33,126.38191039999947,,,,,,,,,,,,,,,,126.36700580001343,126.38191039999947,127.0813363000052,127.0813363000052,127.58091839996632,127.56515619996935,127.5658729999559,127.58091839996632,127.7142315999372,127.8973818999948,127.8973818999948,128.15027179999743,space,1,0.25038330000825226,None,128.1540629999945,128.66344369994476,129.6626116000116,129.6468426999636,,,,,,,,,,,,,,,,,000,002,2025-05-03_14h14.50.957,Cued GoNogo Task,2024.2.4,60.022352354468,2025-05-03 14h15.01.125332 +0200,
block/CondBlock1.xlsx,You are about to start a block of type 1 trials.,34,34,0,Go,Go,0.18,0.2,0.05,space,blue,vertical,space,1.0359609000151977,None,space,1,0.3179945000447333,None,,,,0,0,0,0,0,34,34,34,129.6626116000116,,,,,,,,,,,,,,,,129.64725189993624,129.6626116000116,130.3622253999347,130.3622253999347,130.86163449997548,130.84552959993016,130.84606339992024,130.86163449997548,131.04496959992684,131.2448380999267,131.2448380999267,131.5792775999289,space,1,0.3179945000447333,None,131.5839078000281,132.09402969991788,133.09319779998623,133.07734870002605,,,,,,,,,,,,,,,,,000,002,2025-05-03_14h14.50.957,Cued GoNogo Task,2024.2.4,60.022352354468,2025-05-03 14h15.01.125332 +0200,
block/CondBlock1.xlsx,You are about to start a block of type 1 trials.,35,35,0,Go,Go,0.21,0.2,0.05,space,blue,vertical,space,1.0359609000151977,None,space,1,0.2950843999860808,None,,,,0,0,0,0,0,35,35,35,133.09319779998623,,,,,,,,,,,,,,,,133.0778087999206,133.09319779998623,133.7926064999774,133.7926064999774,134.2922301000217,134.2761390999658,134.2766288999701,134.2922301000217,134.50872689997777,134.69193899992388,134.69193899992388,134.9929404000286,space,1,0.2950843999860808,None,134.99682989995927,135.50782810000237,136.50704960001167,136.49155379994772,,,,,,,,,,,,,,,,,000,002,2025-05-03_14h14.50.957,Cued GoNogo Task,2024.2.4,60.022352354468,2025-05-03 14h15.01.125332 +0200,
block/CondBlock1.xlsx,You are about to start a block of type 1 trials.,36,36,0,Go,Go,0.2,0.2,0.05,space,green,vertical,space,1.0359609000151977,None,space,1,0.2651844999054447,None,,,,0,0,0,0,0,36,36,36,136.50704960001167,,,,,,,,,,,,,,,,136.49196959997062,136.50704960001167,137.20644620002713,137.20644620002713,137.70615679991897,137.69054039998446,137.69135520001873,137.70615679991897,137.90591269999277,138.10571879998315,138.10571879998315,138.37437630002387,space,1,0.2651844999054447,None,138.3789747999981,138.8883251999505,139.88747880002484,139.87199779995717,,,,,,,,,,,,,,,,,000,002,2025-05-03_14h14.50.957,Cued GoNogo Task,2024.2.4,60.022352354468,2025-05-03 14h15.01.125332 +0200,
block/CondBlock1.xlsx,You are about to start a block of type 1 trials.,37,37,0,Go,Go,0.45,0.05,0.2,space,blue,horizontal,space,1.0359609000151977,None,space,1,0.3394804000854492,None,,,,0,0,0,0,0,37,37,37,139.88747880002484,,,,,,,,,,,,,,,,139.87253139994573,139.88747880002484,140.5870300999377,140.5870300999377,141.08655679994263,141.07076199993026,141.07143799995538,141.08655679994263,141.536362899933,141.73599710001145,141.73599710001145,142.08660329994746,space,1,0.3394804000854492,None,142.0897487999173,142.60197780001909,143.60115290002432,143.58526019996498,,,,,,,,,,,,,,,,,000,002,2025-05-03_14h14.50.957,Cued GoNogo Task,2024.2.4,60.022352354468,2025-05-03 14h15.01.125332 +0200,
block/CondBlock1.xlsx,You are about to start a block of type 1 trials.,38,38,0,Go,Go,0.13,0.05,0.2,space,blue,horizontal,space,1.0359609000151977,None,space,1,0.38418330007698387,None,,,,0,0,0,0,0,38,38,38,143.60115290002432,,,,,,,,,,,,,,,,143.58554100000765,143.60115290002432,144.3008163999766,144.3008163999766,144.80007549992297,144.78467700001784,144.78532949998043,144.80007549992297,144.93337959994096,145.11656100000255,145.11656100000255,145.51707479998004,space,1,0.38418330007698387,None,145.52093110000715,146.03251059993636,147.03169620002154,147.01553229999263,,,,,,,,,,,,,,,,,000,002,2025-05-03_14h14.50.957,Cued GoNogo Task,2024.2.4,60.022352354468,2025-05-03 14h15.01.125332 +0200,
block/CondBlock1.xlsx,You are about to start a block of type 1 trials.,39,39,0,Go,Go,0.46,0.2,0.05,space,blue,vertical,space,1.0359609000151977,None,space,1,0.3471750000026077,None,,,,0,0,0,0,0,39,39,39,147.03169620002154,,,,,,,,,,,,,,,,147.01576480001677,147.03169620002154,147.73106189991813,147.73106189991813,148.23063969996292,148.2151176999323,148.2160493999254,148.23063969996292,148.69710989994928,148.88016119995154,148.88016119995154,149.23120809998363,space,1,0.3471750000026077,None,149.23508969997056,149.74609879998025,150.7453770999564,150.72959110001102,,,,,,,,,,,,,,,,,000,002,2025-05-03_14h14.50.957,Cued GoNogo Task,2024.2.4,60.022352354468,2025-05-03 14h15.01.125332 +0200,
block/CondBlock1.xlsx,You are about to start a block of type 1 trials.,40,40,0,Go,Go,0.29,0.2,0.05,space,blue,vertical,space,1.0359609000151977,None,space,1,0.38384320004843175,None,,,,0,0,0,0,0,40,40,40,150.7453770999564,,,,,,,,,,,,,,,,150.72994599991944,150.7453770999564,151.44499919994269,151.44499919994269,151.94443699996918,151.9282543999143,151.9289363999851,151.94443699996918,152.24418529996183,152.42718669993337,152.42718669993337,152.8135211999761,space,1,0.38384320004843175,None,152.81678789993748,153.32637919997796,154.32579529995564,154.30960619996767,,,,,,,,,,,,,,,,,000,002,2025-05-03_14h14.50.957,Cued GoNogo Task,2024.2.4,60.022352354468,2025-05-03 14h15.01.125332 +0200,
block/CondBlock1.xlsx,You are about to start a block of type 1 trials.,41,41,0,Go,Go,0.22,0.2,0.05,space,blue,vertical,space,1.0359609000151977,None,space,1,0.2863904000259936,None,,,,0,0,0,0,0,41,41,41,154.32579529995564,,,,,,,,,,,,,,,,154.30983859999105,154.32579529995564,155.02512759994715,155.02512759994715,155.5248234999599,155.50907709996682,155.50977689994033,155.5248234999599,155.75775330001488,155.94089570001233,155.94089570001233,156.24204769998323,space,1,0.2863904000259936,None,156.24566769995727,156.75707599997986,157.7562722999137,157.74054489994887,,,,,,,,,,,,,,,,,000,002,2025-05-03_14h14.50.957,Cued GoNogo Task,2024.2.4,60.022352354468,2025-05-03 14h15.01.125332 +0200,
block/CondBlock1.xlsx,You are about to start a block of type 1 trials.,42,42,0,Go,Go,0.49,0.2,0.05,space,blue,vertical,space,1.0359609000151977,None,space,1,0.3485907999565825,None,,,,0,0,0,0,0,42,42,42,157.7562722999137,,,,,,,,,,,,,,,,157.740950300009,157.7562722999137,158.4555647999514,158.4555647999514,158.9553013999248,158.93929749995004,158.939955299953,158.9553013999248,159.45494939992204,159.6380255999975,159.6380255999975,159.98987139994279,space,1,0.3485907999565825,None,159.9937920999946,160.50384919997305,161.50309090001974,161.4871960999444,,,,,,,,,,,,,,,,,000,002,2025-05-03_14h14.50.957,Cued GoNogo Task,2024.2.4,60.022352354468,2025-05-03 14h15.01.125332 +0200,
block/CondBlock1.xlsx,You are about to start a block of type 1 trials.,43,43,0,Go,Go,0.2,0.2,0.05,space,blue,vertical,space,1.0359609000151977,None,space,1,0.3097000999841839,None,,,,0,0,0,0,0,43,43,43,161.50309090001974,,,,,,,,,,,,,,,,161.4874312999891,161.50309090001974,162.20272359997034,162.20272359997034,162.7023699999554,162.68625619995873,162.68698449991643,162.7023699999554,162.90188249992207,163.10183479997795,163.10183479997795,163.41916189994663,space,1,0.3097000999841839,None,163.42312950000633,163.9344829999609,164.9335828999756,164.9176002999302,,,,,,,,,,,,,,,,,000,002,2025-05-03_14h14.50.957,Cued GoNogo Task,2024.2.4,60.022352354468,2025-05-03 14h15.01.125332 +0200,
block/CondBlock1.xlsx,You are about to start a block of type 1 trials.,44,44,0,Go,Go,0.3,0.05,0.2,space,blue,horizontal,space,1.0359609000151977,None,space,1,0.29979820002336055,None,,,,0,0,0,0,0,44,44,44,164.9335828999756,,,,,,,,,,,,,,,,164.91783970000688,164.9335828999756,165.63294299994595,165.63294299994595,166.13251299993135,166.116778699914,166.11754439992364,166.13251299993135,166.43248750001658,166.63218529999722,166.63218529999722,166.93442109995522,space,1,0.29979820002336055,None,166.93799449992366,167.44839639996644,,168.44741769996472,,,,,,,,,,,,,,,,,000,002,2025-05-03_14h14.50.957,Cued GoNogo Task,2024.2.4,60.022352354468,2025-05-03 14h15.01.125332 +0200,
block/CondBlock1.xlsx,You are about to start a block of type 1 trials.,45,45,0,NoGo,NoGo,0.21,0.05,0.2,none,green,horizontal,space,1.0359609000151977,None,None,1,,,,,,0,0,0,0,0,45,45,45,168.46384340000805,,,,,,,,,,,,,,,,168.44768659991678,168.46384340000805,169.14674509991892,169.16341869998723,169.64637909992598,169.6306602000259,169.63145540002733,169.64637909992598,169.86288429994602,170.04622419993393,170.04622419993393,170.52947599999607,None,1,,,170.53141389996745,171.02866419998463,172.02777339995373,172.01227880001534,170.54564779996872,170.54564779996872,,,,,,,,,,,,,,,000,002,2025-05-03_14h14.50.957,Cued GoNogo Task,2024.2.4,60.022352354468,2025-05-03 14h15.01.125332 +0200,
block/CondBlock1.xlsx,You are about to start a block of type 1 trials.,46,46,0,NoGo,NoGo,0.45,0.05,0.2,none,blue,horizontal,space,1.0359609000151977,None,None,1,,,,,,0,0,0,0,0,46,46,46,172.02777339995373,,,,,,,,,,,,,,,,172.01261690002866,172.04455039999448,172.74401739996392,172.74401739996392,173.2434166999301,173.22777739993762,173.22849599993788,173.2434166999301,173.69301249994896,173.89297899999656,173.89297899999656,174.37662260001525,None,1,,,174.37717270001303,174.89203729992732,175.89129349996801,175.8756035999395,174.39262509997934,174.39262509997934,,,,,,,,,,,,,,,000,002,2025-05-03_14h14.50.957,Cued GoNogo Task,2024.2.4,60.022352354468,2025-05-03 14h15.01.125332 +0200,
block/CondBlock1.xlsx,You are about to start a block of type 1 trials.,47,47,0,Go,Go,0.24,0.05,0.2,space,green,horizontal,space,1.0359609000151977,None,space,1,0.39988270006142557,None,,,,0,0,0,0,0,47,47,47,175.89129349996801,,,,,,,,,,,,,,,,175.87592949997634,175.89129349996801,176.5906731999712,176.5906731999712,177.09049349999987,177.07428139995318,177.07485729991458,177.09049349999987,177.33999979996588,177.52328610001132,177.52328610001132,177.92625629995018,space,1,0.39988270006142557,None,177.93107369996142,178.43912569992244,179.43846550001763,179.42296250001527,,,,,,,,,,,,,,,,,000,002,2025-05-03_14h14.50.957,Cued GoNogo Task,2024.2.4,60.022352354468,2025-05-03 14h15.01.125332 +0200,
block/CondBlock1.xlsx,You are about to start a block of type 1 trials.,48,48,0,NoGo,NoGo,0.15,0.2,0.05,none,blue,vertical,space,1.0359609000151977,None,None,1,,,,,,0,0,0,0,0,48,48,48,179.43846550001763,,,,,,,,,,,,,,,,179.42335679999087,179.43846550001763,180.13773509999737,180.13773509999737,180.637281699921,180.62156080000568,180.62218880001456,180.637281699921,180.78725279995706,180.9872892999556,180.9872892999556,181.470599399996,None,1,,,181.473838099977,181.98619810002856,182.9854879999766,182.96969679999165,181.48658559995238,181.48658559995238,,,,,,,,,,,,,,,000,002,2025-05-03_14h14.50.957,Cued GoNogo Task,2024.2.4,60.022352354468,2025-05-03 14h15.01.125332 +0200,
block/CondBlock1.xlsx,You are about to start a block of type 1 trials.,49,49,0,Go,Go,0.12,0.05,0.2,space,blue,horizontal,space,1.0359609000151977,None,space,1,0.2706776999402791,None,,,,0,0,0,0,0,49,49,49,182.9854879999766,,,,,,,,,,,,,,,,182.9699506999459,182.9854879999766,183.6848571000155,183.6848571000155,184.18437619996257,184.16860069998074,184.16914399992675,184.18437619996257,184.31756849994417,184.50101260002702,184.50101260002702,184.78492719994392,space,1,0.2706776999402791,None,184.78906570002437,185.30008900002576,186.2995413999306,186.28361929999664,,,,,,,,,,,,,,,,,000,002,2025-05-03_14h14.50.957,Cued GoNogo Task,2024.2.4,60.022352354468,2025-05-03 14h15.01.125332 +0200,
block/CondBlock1.xlsx,You are about to start a block of type 1 trials.,50,50,0,Go,Go,0.22,0.2,0.05,space,green,vertical,space,1.0359609000151977,None,space,1,0.3454163999995217,None,,,,0,0,0,0,0,50,50,50,186.2995413999306,,,,,,,,,,,,,,,,186.28393029992003,186.2995413999306,186.99880449997727,186.99880449997727,187.49839109997265,187.4824969000183,187.48350370000117,187.49839109997265,187.73170150001533,187.91464789991733,187.91464789991733,188.2655642000027,space,1,0.3454163999995217,None,188.2711381999543,188.78070539992768,189.77989359991625,189.76369629998226,,,,,,,,,,,,,,,,,000,002,2025-05-03_14h14.50.957,Cued GoNogo Task,2024.2.4,60.022352354468,2025-05-03 14h15.01.125332 +0200,
block/CondBlock1.xlsx,You are about to start a block of type 1 trials.,51,51,0,Go,Go,0.28,0.05,0.2,space,green,horizontal,space,1.0359609000151977,None,space,1,0.30157850007526577,None,,,,0,0,0,0,0,51,51,51,189.77989359991625,,,,,,,,,,,,,,,,189.76394319999963,189.77989359991625,190.47934229997918,190.47934229997918,190.97870310000144,190.96339299995452,190.96432779997122,190.97870310000144,191.26211339992005,191.44528340001125,191.44528340001125,191.76252410002053,space,1,0.30157850007526577,None,191.76662220002618,192.27764729992487,193.2769444999285,193.2614193999907,,,,,,,,,,,,,,,,,000,002,2025-05-03_14h14.50.957,Cued GoNogo Task,2024.2.4,60.022352354468,2025-05-03 14h15.01.125332 +0200,
block/CondBlock1.xlsx,You are about to start a block of type 1 trials.,52,52,0,Go,Go,0.23,0.2,0.05,space,green,vertical,space,1.0359609000151977,None,space,1,0.24704609997570515,None,,,,0,0,0,0,0,52,52,52,193.2769444999285,,,,,,,,,,,,,,,,193.26184900000226,193.2769444999285,193.9764198999619,193.9764198999619,194.475979299983,194.45995889999904,194.46071349992417,194.475979299983,194.70921300002374,194.89233469997998,194.89233469997998,195.14314719999675,space,1,0.24704609997570515,None,195.14657420001458,195.6584378000116,196.65757399995346,196.6414960999973,,,,,,,,,,,,,,,,,000,002,2025-05-03_14h14.50.957,Cued GoNogo Task,2024.2.4,60.022352354468,2025-05-03 14h15.01.125332 +0200,
block/CondBlock1.xlsx,You are about to start a block of type 1 trials.,53,53,0,Go,Go,0.22,0.05,0.2,space,green,horizontal,space,1.0359609000151977,None,space,1,0.4343592000659555,None,,,,0,0,0,0,0,53,53,53,196.65757399995346,,,,,,,,,,,,,,,,196.641758200014,196.65757399995346,197.3569584999932,197.3569584999932,197.85652269993443,197.840625599958,197.8412943999283,197.85652269993443,198.0898686000146,198.27270859992132,198.27270859992132,198.723816899932,space,1,0.4343592000659555,None,198.72831669996958,199.23886059992947,200.23776489996817,200.22237420000602,,,,,,,,,,,,,,,,,000,002,2025-05-03_14h14.50.957,Cued GoNogo Task,2024.2.4,60.022352354468,2025-05-03 14h15.01.125332 +0200,
block/CondBlock1.xlsx,You are about to start a block of type 1 trials.,54,54,0,NoGo,NoGo,0.14,0.05,0.2,none,green,horizontal,space,1.0359609000151977,None,None,1,,,,,,0,0,0,0,0,54,54,54,200.23776489996817,,,,,,,,,,,,,,,,200.22267629997805,200.23776489996817,200.9374587999191,200.9374587999191,201.43692649994045,201.4208162999712,201.42138529999647,201.43692649994045,201.58683649997693,201.77013530000113,201.77013530000113,202.25399709993508,None,1,,,202.25738879991695,202.76926600001752,203.76824839995243,203.75271179992706,202.26962769997772,202.26962769997772,,,,,,,,,,,,,,,000,002,2025-05-03_14h14.50.957,Cued GoNogo Task,2024.2.4,60.022352354468,2025-05-03 14h15.01.125332 +0200,
block/CondBlock1.xlsx,You are about to start a block of type 1 trials.,55,55,0,Go,Go,0.15,0.2,0.05,space,blue,vertical,space,1.0359609000151977,None,space,1,0.2775602999608964,None,,,,0,0,0,0,0,55,55,55,203.76824839995243,,,,,,,,,,,,,,,,203.7531808000058,203.76824839995243,204.46773279993795,204.46773279993795,204.96748939994723,204.9513956999872,204.95195429993328,204.96748939994723,205.11706309998408,205.31705349998083,205.31705349998083,205.60124380001798,space,1,0.2775602999608964,None,205.60734609991778,206.11649649997707,207.1155013999669,207.09936250001192,,,,,,,,,,,,,,,,,000,002,2025-05-03_14h14.50.957,Cued GoNogo Task,2024.2.4,60.022352354468,2025-05-03 14h15.01.125332 +0200,
block/CondBlock1.xlsx,You are about to start a block of type 1 trials.,56,56,0,Go,Go,0.47,0.2,0.05,space,blue,vertical,space,1.0359609000151977,None,space,1,0.15966030000708997,None,,,,0,0,0,0,0,56,56,56,207.1155013999669,,,,,,,,,,,,,,,,207.09956359991338,207.1155013999669,207.81506819999777,207.81506819999777,208.3146565000061,208.2994620000245,208.3004461999517,208.3146565000061,208.7976190999616,208.9806350999279,208.9806350999279,209.14842270000372,space,1,0.15966030000708997,None,209.15244869992603,209.66346229996998,210.6626911999192,210.64708289992996,,,,,,,,,,,,,,,,,000,002,2025-05-03_14h14.50.957,Cued GoNogo Task,2024.2.4,60.022352354468,2025-05-03 14h15.01.125332 +0200,
block/CondBlock1.xlsx,You are about to start a block of type 1 trials.,57,57,0,NoGo,NoGo,0.42,0.2,0.05,none,green,vertical,space,1.0359609000151977,None,None,1,,,,,,0,0,0,0,0,57,57,57,210.6626911999192,,,,,,,,,,,,,,,,210.64739759999793,210.6626911999192,211.36205999995582,211.36205999995582,211.8617694999557,211.8458007000154,211.84661339991726,211.8617694999557,212.29467059997842,212.47785889997613,212.47785889997613,212.96182069997303,None,1,,,212.96542709995992,213.47694219998084,214.4763756999746,214.46080909995362,212.97738789999858,212.97738789999858,,,,,,,,,,,,,,,000,002,2025-05-03_14h14.50.957,Cued GoNogo Task,2024.2.4,60.022352354468,2025-05-03 14h15.01.125332 +0200,
block/CondBlock1.xlsx,You are about to start a block of type 1 trials.,58,58,0,Go,Go,0.22,0.05,0.2,space,green,horizontal,space,1.0359609000151977,None,space,1,0.27874149999115616,None,,,,0,0,0,0,0,58,58,58,214.4763756999746,,,,,,,,,,,,,,,,214.4610730999848,214.4763756999746,215.17564389994368,215.17564389994368,215.67513859993778,215.65921379998326,215.65986249991693,215.67513859993778,215.9081007000059,216.09159949992318,216.09159949992318,216.37603009992745,space,1,0.27874149999115616,None,216.3800025000237,216.8908624999458,217.89006250002421,217.87426169996615,,,,,,,,,,,,,,,,,000,002,2025-05-03_14h14.50.957,Cued GoNogo Task,2024.2.4,60.022352354468,2025-05-03 14h15.01.125332 +0200,
block/CondBlock1.xlsx,You are about to start a block of type 1 trials.,59,59,0,Go,Go,0.3,0.2,0.05,space,blue,vertical,space,1.0359609000151977,None,space,1,0.24580689996946603,None,,,,0,0,0,0,0,59,59,59,217.89006250002421,,,,,,,,,,,,,,,,217.87458509998396,217.89006250002421,218.58951939991675,218.58951939991675,219.0891399999382,219.07328150002286,219.07404139998835,219.0891399999382,219.3888443999458,219.5887164999731,219.5887164999731,219.83967599994503,space,1,0.24580689996946603,None,219.84389219991863,220.35461529996246,221.35386089992244,221.3380566999549,,,,,,,,,,,,,,,,,000,002,2025-05-03_14h14.50.957,Cued GoNogo Task,2024.2.4,60.022352354468,2025-05-03 14h15.01.125332 +0200,
block/CondBlock1.xlsx,You are about to start a block of type 1 trials.,60,60,0,NoGo,NoGo,0.24,0.2,0.05,none,blue,vertical,space,1.0359609000151977,None,None,1,,,,,,0,0,0,0,0,60,60,60,221.35386089992244,,,,,,,,,,,,,,,,221.33831849996932,221.35386089992244,222.05347319995053,222.05347319995053,222.55290789995342,222.53733009996358,222.53811550000682,222.55290789995342,222.80264959996566,222.98596610000823,222.98596610000823,223.4698690000223,None,1,,,223.47352679993492,223.9851177999517,224.98428330000024,224.96816729998682,223.48539639997762,223.48539639997762,,,,,,,,,,,,,,,000,002,2025-05-03_14h14.50.957,Cued GoNogo Task,2024.2.4,60.022352354468,2025-05-03 14h15.01.125332 +0200,
block/CondBlock1.xlsx,You are about to start a block of type 1 trials.,61,61,0,NoGo,NoGo,0.1,0.2,0.05,none,green,vertical,space,1.0359609000151977,None,None,1,,,,,,0,0,0,0,0,61,61,61,224.98428330000024,,,,,,,,,,,,,,,,224.96842359995935,224.98428330000024,225.68360569991637,225.68360569991637,226.18329109996557,226.16733859991655,226.16824849997647,226.18329109996557,226.2830722000217,226.48298500000965,226.48298500000965,226.9664990999736,None,1,,,226.96720870002173,227.4821290000109,228.48145820002537,228.46580959996209,226.9827540999977,226.9827540999977,,,,,,,,,,,,,,,000,002,2025-05-03_14h14.50.957,Cued GoNogo Task,2024.2.4,60.022352354468,2025-05-03 14h15.01.125332 +0200,
block/CondBlock1.xlsx,You are about to start a block of type 1 trials.,62,62,0,Go,Go,0.45,0.05,0.2,space,blue,horizontal,space,1.0359609000151977,None,space,1,0.28123339999001473,None,,,,0,0,0,0,0,62,62,62,228.48145820002537,,,,,,,,,,,,,,,,228.46615380002186,228.48145820002537,229.18087849998847,229.18087849998847,229.6805800999282,229.66500419995282,229.66596269991715,229.6805800999282,230.13003210001625,230.32982749992516,230.32982749992516,230.61439000000246,space,1,0.28123339999001473,None,230.6192163999658,231.1292690000264,232.12831459997687,232.11298839992378,,,,,,,,,,,,,,,,,000,002,2025-05-03_14h14.50.957,Cued GoNogo Task,2024.2.4,60.022352354468,2025-05-03 14h15.01.125332 +0200,
block/CondBlock1.xlsx,You are about to start a block of type 1 trials.,63,63,0,Go,Go,0.1,0.05,0.2,space,green,horizontal,space,1.0359609000151977,None,space,1,0.2799487999873236,None,,,,0,0,0,0,0,63,63,63,232.12831459997687,,,,,,,,,,,,,,,,232.1134206999559,232.12831459997687,232.82767649996094,232.82767649996094,233.3273438999895,233.31188649998512,233.3125977999298,233.3273438999895,233.42743729997892,233.62733309995383,233.62733309995383,233.9115888000233,space,1,0.2799487999873236,None,233.9169870999176,234.42658809991553,235.42565759993158,235.40984739991836,,,,,,,,,,,,,,,,,000,002,2025-05-03_14h14.50.957,Cued GoNogo Task,2024.2.4,60.022352354468,2025-05-03 14h15.01.125332 +0200,
block/CondBlock1.xlsx,You are about to start a block of type 1 trials.,64,64,0,Go,Go,0.19,0.05,0.2,space,blue,horizontal,space,1.0359609000151977,None,space,1,0.2586523999925703,None,,,,0,0,0,0,0,64,64,64,235.42565759993158,,,,,,,,,,,,,,,,235.41011139994953,235.42565759993158,236.12497010000516,236.12497010000516,236.62463149998803,236.60881449992303,236.60962020000443,236.62463149998803,236.8244768999284,237.0078732999973,237.0078732999973,237.27541769994423,space,1,0.2586523999925703,None,237.28021569992416,237.79033629992045,238.78946669993456,238.7737960999366,,,,,,,,,,,,,,,,,000,002,2025-05-03_14h14.50.957,Cued GoNogo Task,2024.2.4,60.022352354468,2025-05-03 14h15.01.125332 +0200,
block/CondBlock1.xlsx,You are about to start a block of type 1 trials.,65,65,0,Go,Go,0.21,0.2,0.05,space,blue,vertical,space,1.0359609000151977,None,space,1,0.327030900050886,None,,,,0,0,0,0,0,65,65,65,238.78946669993456,,,,,,,,,,,,,,,,238.77415680000558,238.78946669993456,239.48883089993615,239.48883089993615,239.98869409994222,239.97258449997753,239.9734093999723,239.98869409994222,240.2051717999857,240.38824499992188,240.38824499992188,240.7221629000269,space,1,0.327030900050886,None,240.7259766999632,241.2374827999156,242.23671909992117,242.22078939992934,,,,,,,,,,,,,,,,,000,002,2025-05-03_14h14.50.957,Cued GoNogo Task,2024.2.4,60.022352354468,2025-05-03 14h15.01.125332 +0200,
block/CondBlock1.xlsx,You are about to start a block of type 1 trials.,66,66,0,Go,Go,0.18,0.05,0.2,space,blue,horizontal,space,1.0359609000151977,None,space,1,0.28975290001835674,None,,,,0,0,0,0,0,66,66,66,242.23671909992117,,,,,,,,,,,,,,,,242.2210039999336,242.23671909992117,242.93623619992286,242.93623619992286,243.4355869999854,243.41954679996707,243.41993099998217,243.4355869999854,243.6189400999574,243.80202559998725,243.80202559998725,244.10309939994477,space,1,0.28975290001835674,None,244.1071258999873,244.61819619999733,245.61737849994097,245.60165389999747,,,,,,,,,,,,,,,,,000,002,2025-05-03_14h14.50.957,Cued GoNogo Task,2024.2.4,60.022352354468,2025-05-03 14h15.01.125332 +0200,
block/CondBlock1.xlsx,You are about to start a block of type 1 trials.,67,67,0,Go,Go,0.29,0.2,0.05,space,green,vertical,space,1.0359609000151977,None,space,1,0.280062000034377,None,,,,0,0,0,0,0,67,67,67,245.61737849994097,,,,,,,,,,,,,,,,245.6020586999366,245.61737849994097,246.31675869994797,246.31675869994797,246.8163911999436,246.80036320001818,246.80093479994684,246.8163911999436,247.1160200999584,247.29919019993395,247.29919019993395,247.5836457000114,space,1,0.280062000034377,None,247.5878650000086,248.09875619993545,249.09769630001392,249.08204669994302,,,,,,,,,,,,,,,,,000,002,2025-05-03_14h14.50.957,Cued GoNogo Task,2024.2.4,60.022352354468,2025-05-03 14h15.01.125332 +0200,
block/CondBlock1.xlsx,You are about to start a block of type 1 trials.,68,68,0,NoGo,NoGo,0.24,0.2,0.05,none,blue,vertical,space,1.0359609000151977,None,None,1,,,,,,0,0,0,0,0,68,68,68,249.09769630001392,,,,,,,,,,,,,,,,249.08238159993198,249.09769630001392,249.79702900000848,249.79702900000848,250.29667920002248,250.28064939996693,250.2812481999863,250.29667920002248,250.54654659994412,250.7299080999801,250.7299080999801,251.213609599974,None,1,,,251.21714179997798,251.7289101999486,252.7282313000178,252.71219759993255,251.22922390000895,251.22922390000895,,,,,,,,,,,,,,,000,002,2025-05-03_14h14.50.957,Cued GoNogo Task,2024.2.4,60.022352354468,2025-05-03 14h15.01.125332 +0200,
block/CondBlock1.xlsx,You are about to start a block of type 1 trials.,69,69,0,Go,Go,0.27,0.05,0.2,space,green,horizontal,space,1.0359609000151977,None,space,1,0.2667934000492096,None,,,,0,0,0,0,0,69,69,69,252.7282313000178,,,,,,,,,,,,,,,,252.7124089000281,252.7282313000178,253.42752209992614,253.42752209992614,253.92702940001618,253.9112372000236,253.91197459993418,253.92702940001618,254.21016789996065,254.3934089000104,254.3934089000104,254.66304329992272,space,1,0.2667934000492096,None,254.66723929997534,255.17610209994018,256.1751084999414,256.1598066999577,,,,,,,,,,,,,,,,,000,002,2025-05-03_14h14.50.957,Cued GoNogo Task,2024.2.4,60.022352354468,2025-05-03 14h15.01.125332 +0200,
block/CondBlock1.xlsx,You are about to start a block of type 1 trials.,70,70,0,Go,Go,0.25,0.2,0.05,space,green,vertical,space,1.0359609000151977,None,space,1,0.38804959994740784,None,,,,0,0,0,0,0,70,70,70,256.1751084999414,,,,,,,,,,,,,,,,256.1601942999987,256.1751084999414,256.8748511999147,256.8748511999147,257.3743339999346,257.3582752000075,257.35885329998564,257.3743339999346,257.6241706999717,257.823707500007,257.823707500007,258.2251396999927,space,1,0.38804959994740784,None,258.22929169994313,258.7397778999293,259.7391556999646,259.72316219995264,,,,,,,,,,,,,,,,,000,002,2025-05-03_14h14.50.957,Cued GoNogo Task,2024.2.4,60.022352354468,2025-05-03 14h15.01.125332 +0200,
block/CondBlock1.xlsx,You are about to start a block of type 1 trials.,71,71,0,Go,Go,0.28,0.05,0.2,space,green,horizontal,space,1.0359609000151977,None,None,0,,,,,,0,0,0,0,0,71,71,71,259.7391556999646,,,,,,,,,,,,,,,,259.72346769995056,259.7391556999646,260.43855369999073,260.43855369999073,260.93804059992544,260.9218433999922,260.92241399991326,260.93804059992544,261.22099950001575,261.40438909991644,261.40438909991644,261.887904800009,None,0,,,261.89470469998196,262.4035552999703,263.4027459999779,263.3870002999902,261.9037558999844,261.9037558999844,,,,,,,,,,,,,,,000,002,2025-05-03_14h14.50.957,Cued GoNogo Task,2024.2.4,60.022352354468,2025-05-03 14h15.01.125332 +0200,
block/CondBlock1.xlsx,You are about to start a block of type 1 trials.,72,72,0,Go,Go,0.14,0.05,0.2,space,blue,horizontal,space,1.0359609000151977,None,space,1,0.2366815999848768,None,,,,0,0,0,0,0,72,72,72,263.4027459999779,,,,,,,,,,,,,,,,263.3873500999762,263.4027459999779,264.102088799933,264.102088799933,264.60176290001255,264.58572879992425,264.5863715999294,264.60176290001255,264.75144379993435,264.9346976999659,264.9346976999659,265.1854805999901,space,1,0.2366815999848768,None,265.18946030002553,265.7007609999273,266.69986669998616,266.6838304999983,,,,,,,,,,,,,,,,,000,002,2025-05-03_14h14.50.957,Cued GoNogo Task,2024.2.4,60.022352354468,2025-05-03 14h15.01.125332 +0200,
block/CondBlock1.xlsx,You are about to start a block of type 1 trials.,73,73,0,Go,Go,0.11,0.05,0.2,space,blue,horizontal,space,1.0359609000151977,None,space,1,0.31716630002483726,None,,,,0,0,0,0,0,73,73,73,266.69986669998616,,,,,,,,,,,,,,,,266.6841163999634,266.69986669998616,267.39911809994373,267.39911809994373,267.89896879997104,267.8833198000211,267.8839816999389,267.89896879997104,268.0156174999429,268.1987381000072,268.1987381000072,268.53273159998935,space,1,0.31716630002483726,None,268.5361899000127,269.0480513999937,270.0471219000174,270.0312668000115,,,,,,,,,,,,,,,,,000,002,2025-05-03_14h14.50.957,Cued GoNogo Task,2024.2.4,60.022352354468,2025-05-03 14h15.01.125332 +0200,
block/CondBlock1.xlsx,You are about to start a block of type 1 trials.,74,74,0,Go,Go,0.22,0.2,0.05,space,blue,vertical,space,1.0359609000151977,None,space,1,0.35672720009461045,None,,,,0,0,0,0,0,74,74,74,270.0471219000174,,,,,,,,,,,,,,,,270.03153129993007,270.0471219000174,270.7465348999249,270.7465348999249,271.2460786999436,271.23025099991355,271.2308174999198,271.2460786999436,271.4793999999529,271.66246939997654,271.66246939997654,272.0303507000208,space,1,0.35672720009461045,None,272.0344231999479,272.5451580999652,273.5443456999492,273.5286524000112,,,,,,,,,,,,,,,,,000,002,2025-05-03_14h14.50.957,Cued GoNogo Task,2024.2.4,60.022352354468,2025-05-03 14h15.01.125332 +0200,
block/CondBlock1.xlsx,You are about to start a block of type 1 trials.,75,75,0,Go,Go,0.26,0.05,0.2,space,blue,horizontal,space,1.0359609000151977,None,space,1,0.26556999993044883,None,,,,0,0,0,0,0,75,75,75,273.5443456999492,,,,,,,,,,,,,,,,273.5290645000059,273.5443456999492,274.2437548999442,274.2437548999442,274.74327039998025,274.72741359996144,274.7280527999392,274.74327039998025,275.00972620001994,275.19288709992543,275.19288709992543,275.4608645000262,space,1,0.26556999993044883,None,275.46364620001987,275.97579139994923,,276.97492199996486,,,,,,,,,,,,,,,,,000,002,2025-05-03_14h14.50.957,Cued GoNogo Task,2024.2.4,60.022352354468,2025-05-03 14h15.01.125332 +0200,
block/CondBlock1.xlsx,You are about to start a block of type 1 trials.,76,76,0,Go,Go,0.14,0.2,0.05,space,green,vertical,space,1.0359609000151977,None,space,1,0.3684225999750197,None,,,,0,0,0,0,0,76,76,76,276.9914430999197,,,,,,,,,,,,,,,,276.9752703999402,276.9914430999197,277.67399309994653,277.6907226999756,278.17359979997855,278.15785730001517,278.15832039993256,278.17359979997855,278.3234456999926,278.5066344999941,278.5066344999941,278.89064919995144,space,1,0.3684225999750197,None,278.89684649999253,279.4061177999247,,280.40523689996917,,,,,,,,,,,,,,,,,000,002,2025-05-03_14h14.50.957,Cued GoNogo Task,2024.2.4,60.022352354468,2025-05-03 14h15.01.125332 +0200,
block/CondBlock1.xlsx,You are about to start a block of type 1 trials.,77,77,0,Go,Go,0.18,0.05,0.2,space,green,horizontal,space,1.0359609000151977,None,space,1,0.3290903000161052,None,,,,0,0,0,0,0,77,77,77,280.42177449993324,,,,,,,,,,,,,,,,280.40547859994695,280.42177449993324,281.1046329999808,281.1212270000251,281.6043233999517,281.5882118999725,281.58863479993306,281.6043233999517,281.78760439995676,281.97064680000767,281.97064680000767,282.30478100001346,space,1,0.3290903000161052,None,282.30862409994006,282.820226599928,,283.8192884000018,,,,,,,,,,,,,,,,,000,002,2025-05-03_14h14.50.957,Cued GoNogo Task,2024.2.4,60.022352354468,2025-05-03 14h15.01.125332 +0200,
block/CondBlock1.xlsx,You are about to start a block of type 1 trials.,78,78,0,NoGo,NoGo,0.27,0.05,0.2,none,blue,horizontal,space,1.0359609000151977,None,None,1,,,,,,0,0,0,0,0,78,78,78,283.83579399995506,,,,,,,,,,,,,,,,283.8195635000011,283.83579399995506,284.5185547999572,284.5353796000127,285.01819989993237,285.0024717999622,285.00323449994903,285.01819989993237,285.3012533999281,285.48446489998605,285.48446489998605,285.96793619997334,None,1,,,285.97000179998577,286.46711799991317,287.46624640002847,287.4501376999542,285.9841211999301,285.9841211999301,,,,,,,,,,,,,,,000,002,2025-05-03_14h14.50.957,Cued GoNogo Task,2024.2.4,60.022352354468,2025-05-03 14h15.01.125332 +0200,
block/CondBlock1.xlsx,You are about to start a block of type 1 trials.,79,79,0,NoGo,NoGo,0.26,0.2,0.05,none,blue,vertical,space,1.0359609000151977,None,None,1,,,,,,0,0,0,0,0,79,79,79,287.46624640002847,,,,,,,,,,,,,,,,287.45031300000846,287.48292809992563,288.1821885999525,288.1821885999525,288.681799300015,288.6657692999579,288.66633369994815,288.681799300015,288.9483134999173,289.13144209992606,289.13144209992606,289.61575889994856,None,1,,,289.6162446999224,290.13063699996565,291.1298259999603,291.1142050999915,289.63114700000733,289.63114700000733,,,,,,,,,,,,,,,000,002,2025-05-03_14h14.50.957,Cued GoNogo Task,2024.2.4,60.022352354468,2025-05-03 14h15.01.125332 +0200,
block/CondBlock1.xlsx,You are about to start a block of type 1 trials.,80,80,0,Go,Go,0.22,0.2,0.05,space,green,vertical,space,1.0359609000151977,None,space,1,0.3294795999536291,None,,,,0,0,0,0,0,80,80,80,291.1298259999603,,,,,,,,,,,,,,,,291.11462859995663,291.1298259999603,291.8292896000203,291.8292896000203,292.3289489999879,292.31276759994216,292.31364840001334,292.3289489999879,292.5620592000196,292.74521959992126,292.74521959992126,293.0797350999201,space,1,0.3294795999536291,None,293.0835852000164,293.5945301000029,294.593712199945,294.5777366999537,,,,,,,,,,,,,,,,,000,002,2025-05-03_14h14.50.957,Cued GoNogo Task,2024.2.4,60.022352354468,2025-05-03 14h15.01.125332 +0200,
block/CondBlock1.xlsx,You are about to start a block of type 1 trials.,81,81,0,Go,Go,0.5,0.2,0.05,space,green,vertical,space,1.0359609000151977,None,space,1,0.27035670005716383,None,,,,0,0,0,0,0,81,81,81,294.593712199945,,,,,,,,,,,,,,,,294.5780349000124,294.593712199945,295.29304000001866,295.29304000001866,295.792721399921,295.77672810002696,295.77742669999134,295.792721399921,296.29238799994346,296.4919904000126,296.4919904000126,296.7763044999447,space,1,0.27035670005716383,None,296.78144309995696,297.29141159995925,298.29056380002294,298.27474809996784,,,,,,,,,,,,,,,,,000,002,2025-05-03_14h14.50.957,Cued GoNogo Task,2024.2.4,60.022352354468,2025-05-03 14h15.01.125332 +0200,
block/CondBlock1.xlsx,You are about to start a block of type 1 trials.,82,82,0,Go,Go,0.43,0.05,0.2,space,green,horizontal,space,1.0359609000151977,None,space,1,0.3050595000386238,None,,,,0,0,0,0,0,82,82,82,298.29056380002294,,,,,,,,,,,,,,,,298.2751282999525,298.29056380002294,298.98979129991494,298.98979129991494,299.4896641999949,299.473946299986,299.47464679996483,299.4896641999949,299.92245129996445,300.1057861999143,300.1057861999143,300.4236959000118,space,1,0.3050595000386238,None,300.4278555000201,300.93845559994224,301.93767859996296,301.92175689991564,,,,,,,,,,,,,,,,,000,002,2025-05-03_14h14.50.957,Cued GoNogo Task,2024.2.4,60.022352354468,2025-05-03 14h15.01.125332 +0200,
block/CondBlock1.xlsx,You are about to start a block of type 1 trials.,83,83,0,Go,Go,0.25,0.2,0.05,space,green,vertical,space,1.0359609000151977,None,space,1,0.2884364000055939,None,,,,0,0,0,0,0,83,83,83,301.93767859996296,,,,,,,,,,,,,,,,301.9220805999357,301.93767859996296,302.63707719999366,302.63707719999366,303.1366205000086,303.1207183999941,303.1213797000237,303.1366205000086,303.3864062000066,303.58623000001535,303.58623000001535,303.8875792999752,space,1,0.2884364000055939,None,303.8921377999941,304.4022412999766,305.40139559993986,305.3856524999719,,,,,,,,,,,,,,,,,000,002,2025-05-03_14h14.50.957,Cued GoNogo Task,2024.2.4,60.022352354468,2025-05-03 14h15.01.125332 +0200,
block/CondBlock1.xlsx,You are about to start a block of type 1 trials.,84,84,0,NoGo,NoGo,0.14,0.2,0.05,none,green,vertical,space,1.0359609000151977,None,None,1,,,,,,0,0,0,0,0,84,84,84,305.40139559993986,,,,,,,,,,,,,,,,305.38604000001214,305.40139559993986,306.10077839996666,306.10077839996666,306.60051969997585,306.5842281000223,306.5847573999781,306.60051969997585,306.75040219991934,306.93323039996903,306.93323039996903,307.41696790000424,None,1,,,307.4195813999977,307.91591430001426,308.9150647999486,308.8990943999961,307.43310719996225,307.43310719996225,,,,,,,,,,,,,,,000,002,2025-05-03_14h14.50.957,Cued GoNogo Task,2024.2.4,60.022352354468,2025-05-03 14h15.01.125332 +0200,
block/CondBlock1.xlsx,You are about to start a block of type 1 trials.,85,85,0,Go,Go,0.2,0.05,0.2,space,blue,horizontal,space,1.0359609000151977,None,space,1,0.2247143000131473,None,,,,0,0,0,0,0,85,85,85,308.9150647999486,,,,,,,,,,,,,,,,308.8993460999336,308.93203010002617,309.63131069997326,309.63131069997326,310.1307609999785,310.11483269999735,310.11558510002214,310.1307609999785,310.3307273000246,310.5305725999642,310.5305725999642,310.765020599938,space,1,0.2247143000131473,None,310.77050570002757,311.2800706999842,312.2791437000269,312.26326579996385,,,,,,,,,,,,,,,,,000,002,2025-05-03_14h14.50.957,Cued GoNogo Task,2024.2.4,60.022352354468,2025-05-03 14h15.01.125332 +0200,
block/CondBlock1.xlsx,You are about to start a block of type 1 trials.,86,86,0,Go,Go,0.16,0.2,0.05,space,blue,vertical,space,1.0359609000151977,None,space,1,0.3276807999936864,None,,,,0,0,0,0,0,86,86,86,312.2791437000269,,,,,,,,,,,,,,,,312.26354700000957,312.2791437000269,312.97853309998754,312.97853309998754,313.4780687999446,313.46220690000337,313.46285889996216,313.4780687999446,313.6447314999532,313.8278742999537,313.8278742999537,314.16244689992163,space,1,0.3276807999936864,None,314.16702839999925,314.67702459997963,315.6763133999193,315.66034910001326,,,,,,,,,,,,,,,,,000,002,2025-05-03_14h14.50.957,Cued GoNogo Task,2024.2.4,60.022352354468,2025-05-03 14h15.01.125332 +0200,
block/CondBlock1.xlsx,You are about to start a block of type 1 trials.,87,87,0,Go,Go,0.41,0.2,0.05,space,green,vertical,space,1.0359609000151977,None,space,1,0.30465730000287294,None,,,,0,0,0,0,0,87,87,87,315.6763133999193,,,,,,,,,,,,,,,,315.6605693999445,315.6763133999193,316.37560039991513,316.37560039991513,316.87533980002627,316.85951899993233,316.86035680002533,316.87533980002627,317.29173529997934,317.4749268000014,317.4749268000014,317.7926828999771,space,1,0.30465730000287294,None,317.79995679995045,318.3074938999489,319.30658460000996,319.2907982999459,,,,,,,,,,,,,,,,,000,002,2025-05-03_14h14.50.957,Cued GoNogo Task,2024.2.4,60.022352354468,2025-05-03 14h15.01.125332 +0200,
block/CondBlock1.xlsx,You are about to start a block of type 1 trials.,88,88,0,NoGo,NoGo,0.15,0.2,0.05,none,green,vertical,space,1.0359609000151977,None,None,1,,,,,,0,0,0,0,0,88,88,88,319.30658460000996,,,,,,,,,,,,,,,,319.2910641999915,319.30658460000996,320.00594069994986,320.00594069994986,320.5056551999878,320.48959959996864,320.49018670001533,320.5056551999878,320.65545009996276,320.85532889992464,320.85532889992464,321.3387723999331,None,1,,,321.3411331999814,321.83808399992995,322.837063999963,322.8216026999289,321.35515690001193,321.35515690001193,,,,,,,,,,,,,,,000,002,2025-05-03_14h14.50.957,Cued GoNogo Task,2024.2.4,60.022352354468,2025-05-03 14h15.01.125332 +0200,
block/CondBlock1.xlsx,You are about to start a block of type 1 trials.,89,89,0,Go,Go,0.24,0.05,0.2,space,blue,horizontal,space,1.0359609000151977,None,space,1,0.28638790000695735,None,,,,0,0,0,0,0,89,89,89,322.837063999963,,,,,,,,,,,,,,,,322.8220437000273,322.853705800022,323.5532491999911,323.5532491999911,324.0526565000182,324.03710770001635,324.0379837999353,324.0526565000182,324.30260489997454,324.4857817000011,324.4857817000011,324.7866215999238,space,1,0.28638790000695735,None,324.7906276999274,325.30173009994905,326.3009517999599,326.2850606000284,,,,,,,,,,,,,,,,,000,002,2025-05-03_14h14.50.957,Cued GoNogo Task,2024.2.4,60.022352354468,2025-05-03 14h15.01.125332 +0200,
block/CondBlock1.xlsx,You are about to start a block of type 1 trials.,90,90,0,Go,Go,0.25,0.2,0.05,space,blue,vertical,space,1.0359609000151977,None,space,1,0.2528818999417126,None,,,,0,0,0,0,0,90,90,90,326.3009517999599,,,,,,,,,,,,,,,,326.2853024000069,326.3009517999599,327.00017939996906,327.00017939996906,327.49979809997603,327.4838236999931,327.4844605999533,327.49979809997603,327.7498194000218,327.94972539995797,327.94972539995797,328.21761269995477,space,1,0.2528818999417126,None,328.22263749991544,328.7323064999655,329.731539899949,329.7155252000084,,,,,,,,,,,,,,,,,000,002,2025-05-03_14h14.50.957,Cued GoNogo Task,2024.2.4,60.022352354468,2025-05-03 14h15.01.125332 +0200,
block/CondBlock1.xlsx,You are about to start a block of type 1 trials.,91,91,0,Go,Go,0.26,0.05,0.2,space,green,horizontal,space,1.0359609000151977,None,space,1,0.24701829999685287,None,,,,0,0,0,0,0,91,91,91,329.731539899949,,,,,,,,,,,,,,,,329.71587209997233,329.731539899949,330.43075069994666,330.43075069994666,330.93067729996983,330.9146601000102,330.9154649999691,330.93067729996983,331.19688079995103,331.38017439993564,331.38017439993564,331.6313100999687,space,1,0.24701829999685287,None,331.6367243999848,332.1460969999898,333.1451611999655,333.1295714000007,,,,,,,,,,,,,,,,,000,002,2025-05-03_14h14.50.957,Cued GoNogo Task,2024.2.4,60.022352354468,2025-05-03 14h15.01.125332 +0200,
block/CondBlock1.xlsx,You are about to start a block of type 1 trials.,92,92,0,NoGo,NoGo,0.44,0.2,0.05,none,blue,vertical,space,1.0359609000151977,None,None,1,,,,,,0,0,0,0,0,92,92,92,333.1451611999655,,,,,,,,,,,,,,,,333.1298714999575,333.1451611999655,333.84458999999333,333.84458999999333,334.34437750000507,334.3284437999828,334.3290900000138,334.34437750000507,334.79386590002105,334.97705749992747,334.97705749992747,335.46100489993114,None,1,,,335.46373259997927,335.9762351999525,336.97533109993674,336.9595540999435,335.4766412000172,335.4766412000172,,,,,,,,,,,,,,,000,002,2025-05-03_14h14.50.957,Cued GoNogo Task,2024.2.4,60.022352354468,2025-05-03 14h15.01.125332 +0200,
block/CondBlock1.xlsx,You are about to start a block of type 1 trials.,93,93,0,Go,Go,0.13,0.2,0.05,space,green,vertical,space,1.0359609000151977,None,space,1,0.2641317000379786,None,,,,0,0,0,0,0,93,93,93,336.97533109993674,,,,,,,,,,,,,,,,336.959748400026,336.97533109993674,337.67493999993894,337.67493999993894,338.1745521000121,338.15902519994415,338.1594827999361,338.1745521000121,338.3078203999903,338.49076900002547,338.49076900002547,338.7590750999516,space,1,0.2641317000379786,None,338.76428260002285,339.2734899999341,340.2725125999423,340.2562992000021,,,,,,,,,,,,,,,,,000,002,2025-05-03_14h14.50.957,Cued GoNogo Task,2024.2.4,60.022352354468,2025-05-03 14h15.01.125332 +0200,
block/CondBlock1.xlsx,You are about to start a block of type 1 trials.,94,94,0,Go,Go,0.44,0.05,0.2,space,blue,horizontal,space,1.0359609000151977,None,space,1,0.273764600045979,None,,,,0,0,0,0,0,94,94,94,340.2725125999423,,,,,,,,,,,,,,,,340.2565227999585,340.2725125999423,340.9721268999856,340.9721268999856,341.4717993999366,341.45576439995784,341.45641889993567,341.4717993999366,341.9214374999283,342.1045960999327,342.1045960999327,342.38889109995216,space,1,0.273764600045979,None,342.3929262999445,342.9039338999428,343.90309629996773,343.8870873999549,,,,,,,,,,,,,,,,,000,002,2025-05-03_14h14.50.957,Cued GoNogo Task,2024.2.4,60.022352354468,2025-05-03 14h15.01.125332 +0200,
block/CondBlock1.xlsx,You are about to start a block of type 1 trials.,95,95,0,Go,Go,0.15,0.2,0.05,space,green,vertical,space,1.0359609000151977,None,space,1,0.29543960001319647,None,,,,0,0,0,0,0,95,95,95,343.90309629996773,,,,,,,,,,,,,,,,343.88731239992194,343.90309629996773,344.60257549991366,344.60257549991366,345.1022156999679,345.0862299000146,345.08688820002135,345.1022156999679,345.2520123999566,345.4517801000038,345.4517801000038,345.75265129993204,space,1,0.29543960001319647,None,345.7581684999168,346.2677380000241,347.2669172999449,347.2511659999145,,,,,,,,,,,,,,,,,000,002,2025-05-03_14h14.50.957,Cued GoNogo Task,2024.2.4,60.022352354468,2025-05-03 14h15.01.125332 +0200,
block/CondBlock1.xlsx,You are about to start a block of type 1 trials.,96,96,0,Go,Go,0.49,0.2,0.05,space,green,vertical,space,1.0359609000151977,None,space,1,0.278749099932611,None,,,,0,0,0,0,0,96,96,96,347.2669172999449,,,,,,,,,,,,,,,,347.25145620002877,347.2669172999449,347.9665481999982,347.9665481999982,348.4660679999506,348.4500379000092,348.45067499997094,348.4660679999506,348.96577529993374,349.1487927000271,349.1487927000271,349.4334664000198,space,1,0.278749099932611,None,349.438670399948,349.94808619993273,350.94722999993246,350.93148959998507,,,,,,,,,,,,,,,,,000,002,2025-05-03_14h14.50.957,Cued GoNogo Task,2024.2.4,60.022352354468,2025-05-03 14h15.01.125332 +0200,
block/CondBlock1.xlsx,You are about to start a block of type 1 trials.,97,97,0,Go,Go,0.11,0.2,0.05,space,blue,vertical,space,1.0359609000151977,None,space,1,0.31006849999539554,None,,,,0,0,0,0,0,97,97,97,350.94722999993246,,,,,,,,,,,,,,,,350.9317702000262,350.94722999993246,351.64672279998194,351.64672279998194,352.1462841000175,352.13054849999025,352.13119270000607,352.1462841000175,352.2628074999666,352.44602049991954,352.44602049991954,352.76437440002337,space,1,0.31006849999539554,None,352.7699212000007,353.278661099961,354.2779014999978,354.26219669997226,,,,,,,,,,,,,,,,,000,002,2025-05-03_14h14.50.957,Cued GoNogo Task,2024.2.4,60.022352354468,2025-05-03 14h15.01.125332 +0200,
block/CondBlock1.xlsx,You are about to start a block of type 1 trials.,98,98,0,Go,Go,0.26,0.05,0.2,space,green,horizontal,space,1.0359609000151977,None,space,1,0.30062049999833107,None,,,,0,0,0,0,0,98,98,98,354.2779014999978,,,,,,,,,,,,,,,,354.2625106999185,354.2779014999978,354.97739569994155,354.97739569994155,355.47680059995037,355.46135519992094,355.4622636999702,355.47680059995037,355.743333099992,355.9266317000147,355.9266317000147,356.2438110000221,space,1,0.30062049999833107,None,356.2466984000057,356.75913369993214,357.7583373999223,357.74223239999264,,,,,,,,,,,,,,,,,000,002,2025-05-03_14h14.50.957,Cued GoNogo Task,2024.2.4,60.022352354468,2025-05-03 14h15.01.125332 +0200,
block/CondBlock1.xlsx,You are about to start a block of type 1 trials.,99,99,0,Go,Go,0.28,0.05,0.2,space,green,horizontal,space,1.0359609000151977,None,space,1,0.2834721999242902,None,,,,0,0,0,0,0,99,99,99,357.7583373999223,,,,,,,,,,,,,,,,357.74243829993065,357.7583373999223,358.457888099947,358.457888099947,358.9572110999143,358.94091809995007,358.9414261999773,358.9572110999143,359.24036699999124,359.42365619994234,359.42365619994234,359.7099711999763,space,1,0.2834721999242902,None,359.7146802999778,360.22278059995733,361.2338512999704,361.20647490001284,,,,,,,,,,,,,,,,,000,002,2025-05-03_14h14.50.957,Cued GoNogo Task,2024.2.4,60.022352354468,2025-05-03 14h15.01.125332 +0200,
block/CondBlock1.xlsx,You are about to start a block of type 1 trials.,0,0,0,,,,,,,,,space,1.0359609000151977,None,,,,,space,0.6661461000330746,None,0,0,0,0,,,,,,,,,,,,,,,,,,,,,,,,,,,,,,,,,,,,,,,,,,,361.2316300999373,361.2338512999704,361.2338512999704,361.9061842999654,space,0.6661461000330746,None,,,,,,,,000,002,2025-05-03_14h14.50.957,Cued GoNogo Task,2024.2.4,60.022352354468,2025-05-03 14h15.01.125332 +0200,
block/CondBlock2.xlsx,You are about to start a block of type 2 trials.,0,0,0,Go,Go,0.18,0.05,0.2,space,green,horizontal,space,264.5694113000063,None,space,1,0.3967334000626579,None,,,,0,1,1,1,0,0,0,0,626.5532983000157,,,,,,,,,361.9110470999731,361.9215337999631,361.9215337999631,626.5059787000064,space,264.5694113000063,None,626.5510510000167,626.5532983000157,627.2201087999856,627.2531967000104,627.71987609996,627.704093499924,627.7050965999952,627.71987609996,627.9030423000222,628.0862888999982,628.0862888999982,628.4875303999288,space,1,0.3967334000626579,None,628.4926937000128,629.001899600029,630.0012123999186,629.9854856999591,,,,,,,,,,,,,,,,,000,002,2025-05-03_14h14.50.957,Cued GoNogo Task,2024.2.4,60.022352354468,2025-05-03 14h15.01.125332 +0200,
block/CondBlock2.xlsx,You are about to start a block of type 2 trials.,1,1,0,Go,Go,0.2,0.2,0.05,space,green,vertical,space,264.5694113000063,None,space,1,0.282863000058569,None,,,,0,1,1,1,0,1,1,1,630.0012123999186,,,,,,,,,,,,,,,,629.985822699964,630.0012123999186,630.7007632999448,630.7007632999448,631.2002377000172,631.1842768000206,631.1849742999766,631.2002377000172,631.3999258999247,631.6000973000191,631.6000973000191,631.8857676999178,space,1,0.282863000058569,None,631.890246200026,632.3991035999497,633.3983615000034,633.382512299926,,,,,,,,,,,,,,,,,000,002,2025-05-03_14h14.50.957,Cued GoNogo Task,2024.2.4,60.022352354468,2025-05-03 14h15.01.125332 +0200,
block/CondBlock2.xlsx,You are about to start a block of type 2 trials.,2,2,0,Go,Go,0.22,0.05,0.2,space,blue,horizontal,space,264.5694113000063,None,space,1,0.2621979999821633,None,,,,0,1,1,1,0,2,2,2,633.3983615000034,,,,,,,,,,,,,,,,633.3827877999283,633.3983615000034,634.0978716999525,634.0978716999525,634.597275899956,634.5812920000171,634.5818906999193,634.597275899956,634.8305324999383,635.013577500009,635.013577500009,635.2814530999167,space,1,0.2621979999821633,None,635.2857331000268,635.7963508999674,636.7953730999725,636.7797361999983,,,,,,,,,,,,,,,,,000,002,2025-05-03_14h14.50.957,Cued GoNogo Task,2024.2.4,60.022352354468,2025-05-03 14h15.01.125332 +0200,
block/CondBlock2.xlsx,You are about to start a block of type 2 trials.,3,3,0,Go,Go,0.14,0.05,0.2,space,green,horizontal,space,264.5694113000063,None,space,1,0.2511759999906644,None,,,,0,1,1,1,0,3,3,3,636.7953730999725,,,,,,,,,,,,,,,,636.7799971000059,636.7953730999725,637.4950210999232,637.4950210999232,637.9945146000246,637.9785745999543,637.979171999963,637.9945146000246,638.1445554000093,638.3275493999245,638.3275493999245,638.5955059999833,space,1,0.2511759999906644,None,638.600708300015,639.1104202999268,640.1095146000152,640.0938781999284,,,,,,,,,,,,,,,,,000,002,2025-05-03_14h14.50.957,Cued GoNogo Task,2024.2.4,60.022352354468,2025-05-03 14h15.01.125332 +0200,
block/CondBlock2.xlsx,You are about to start a block of type 2 trials.,4,4,0,Go,Go,0.26,0.05,0.2,space,blue,horizontal,space,264.5694113000063,None,space,1,0.26930990000255406,None,,,,0,1,1,1,0,4,4,4,640.1095146000152,,,,,,,,,,,,,,,,640.0941990999272,640.1095146000152,640.8089043999789,640.8089043999789,641.3083353999536,641.2925422999542,641.2929857999552,641.3083353999536,641.5749559999676,641.7581319999881,641.7581319999881,642.042400999926,space,1,0.26930990000255406,None,642.046499799937,642.5575511999195,643.5566517999396,643.5405738999834,,,,,,,,,,,,,,,,,000,002,2025-05-03_14h14.50.957,Cued GoNogo Task,2024.2.4,60.022352354468,2025-05-03 14h15.01.125332 +0200,
block/CondBlock2.xlsx,You are about to start a block of type 2 trials.,5,5,0,Go,Go,0.1,0.05,0.2,space,blue,horizontal,space,264.5694113000063,None,space,1,0.2837211999576539,None,,,,0,1,1,1,0,5,5,5,643.5566517999396,,,,,,,,,,,,,,,,643.5408146999544,643.5566517999396,644.256156199961,644.256156199961,644.7555777999805,644.7399285999127,644.7405868999194,644.7555777999805,644.8556587999919,645.0554718999192,645.0554718999192,645.3565830999287,space,1,0.2837211999576539,None,645.3618114999263,645.8714244000148,646.8706661999458,646.8547796999337,,,,,,,,,,,,,,,,,000,002,2025-05-03_14h14.50.957,Cued GoNogo Task,2024.2.4,60.022352354468,2025-05-03 14h15.01.125332 +0200,
block/CondBlock2.xlsx,You are about to start a block of type 2 trials.,6,6,0,NoGo,NoGo,0.3,0.2,0.05,none,green,vertical,space,264.5694113000063,None,None,1,,,,,,0,1,1,1,0,6,6,6,646.8706661999458,,,,,,,,,,,,,,,,646.8551052999683,646.8706661999458,647.5699817999266,647.5699817999266,648.0697327000089,648.053593199933,648.054312299937,648.0697327000089,648.3693684999598,648.5692011999199,648.5692011999199,649.0526670999825,None,1,,,649.0549037000164,649.5517387000145,650.5509606000269,650.5348437000066,649.0686724999687,649.0686724999687,,,,,,,,,,,,,,,000,002,2025-05-03_14h14.50.957,Cued GoNogo Task,2024.2.4,60.022352354468,2025-05-03 14h15.01.125332 +0200,
block/CondBlock2.xlsx,You are about to start a block of type 2 trials.,7,7,0,NoGo,NoGo,0.14,0.05,0.2,none,blue,horizontal,space,264.5694113000063,None,space,0,0.23127999994903803,None,,,,0,1,1,1,0,7,7,7,650.5509606000269,,,,,,,,,,,,,,,,650.5350866999943,650.5674616999459,651.2669556000037,651.2669556000037,651.7665614000289,651.7505710999249,651.751293099951,651.7665614000289,651.9163411000045,652.0997108999873,652.0997108999873,652.3342538999859,space,0,0.23127999994903803,None,652.3392113000154,652.8491258999566,653.8484455000143,653.832444199943,,,,,,,,,,,,,,,,,000,002,2025-05-03_14h14.50.957,Cued GoNogo Task,2024.2.4,60.022352354468,2025-05-03 14h15.01.125332 +0200,
block/CondBlock2.xlsx,You are about to start a block of type 2 trials.,8,8,0,Go,Go,0.13,0.2,0.05,space,blue,vertical,space,264.5694113000063,None,space,1,0.30421339999884367,None,,,,0,1,1,1,0,8,8,8,653.8484455000143,,,,,,,,,,,,,,,,653.832786599989,653.8484455000143,654.5475850999355,654.5475850999355,655.047232999932,655.0311658999417,655.0317811999703,655.047232999932,655.1804402000271,655.3637693999335,655.3637693999335,655.6810673999134,space,1,0.30421339999884367,None,655.6845794999972,656.1962272999808,657.1954842000268,657.1794692999683,,,,,,,,,,,,,,,,,000,002,2025-05-03_14h14.50.957,Cued GoNogo Task,2024.2.4,60.022352354468,2025-05-03 14h15.01.125332 +0200,
block/CondBlock2.xlsx,You are about to start a block of type 2 trials.,9,9,0,Go,Go,0.43,0.2,0.05,space,green,vertical,space,264.5694113000063,None,space,1,0.3679039999842644,None,,,,0,1,1,1,0,9,9,9,657.1954842000268,,,,,,,,,,,,,,,,657.1797724999487,657.1954842000268,657.8949184999801,657.8949184999801,658.3944077999331,658.379022100009,658.3799448999343,658.3944077999331,658.8274294999428,659.0105874999426,659.0105874999426,659.3949361999985,space,1,0.3679039999842644,None,659.3992976999143,659.9098953999346,660.9090412999503,660.8930767999263,,,,,,,,,,,,,,,,,000,002,2025-05-03_14h14.50.957,Cued GoNogo Task,2024.2.4,60.022352354468,2025-05-03 14h15.01.125332 +0200,
block/CondBlock2.xlsx,You are about to start a block of type 2 trials.,10,10,0,Go,Go,0.14,0.2,0.05,space,green,vertical,space,264.5694113000063,None,space,1,0.3055486000375822,None,,,,0,1,1,1,0,10,10,10,660.9090412999503,,,,,,,,,,,,,,,,660.8933196999133,660.9090412999503,661.6084678999614,661.6084678999614,662.1080588999903,662.0920465999516,662.0928088999353,662.1080588999903,662.2579141999595,662.4413516999921,662.4413516999921,662.7585540999426,space,1,0.3055486000375822,None,662.7630273000104,663.273632699973,664.2728652999504,664.2569705999922,,,,,,,,,,,,,,,,,000,002,2025-05-03_14h14.50.957,Cued GoNogo Task,2024.2.4,60.022352354468,2025-05-03 14h15.01.125332 +0200,
block/CondBlock2.xlsx,You are about to start a block of type 2 trials.,11,11,0,Go,Go,0.27,0.2,0.05,space,green,vertical,space,264.5694113000063,None,space,1,0.2976300000445917,None,,,,0,1,1,1,0,11,11,11,664.2728652999504,,,,,,,,,,,,,,,,664.2572575999657,664.2728652999504,664.9724383000284,664.9724383000284,665.4718405000167,665.4562566999812,665.4571247999556,665.4718405000167,665.7550027000252,665.9383049999597,665.9383049999597,666.2394632999785,space,1,0.2976300000445917,None,666.2434869999997,666.7542887999443,667.7534144999227,667.7378313000081,,,,,,,,,,,,,,,,,000,002,2025-05-03_14h14.50.957,Cued GoNogo Task,2024.2.4,60.022352354468,2025-05-03 14h15.01.125332 +0200,
block/CondBlock2.xlsx,You are about to start a block of type 2 trials.,12,12,0,Go,Go,0.3,0.05,0.2,space,green,horizontal,space,264.5694113000063,None,space,1,0.3112803000258282,None,,,,0,1,1,1,0,12,12,12,667.7534144999227,,,,,,,,,,,,,,,,667.7381510999985,667.7534144999227,668.452860499965,668.452860499965,668.9524231000105,668.9364263999742,668.9370097999927,668.9524231000105,669.252253399929,669.4519402999431,669.4519402999431,669.7698624000186,space,1,0.3112803000258282,None,669.7748742999975,670.2846922000172,671.2836860999232,671.2678250999888,,,,,,,,,,,,,,,,,000,002,2025-05-03_14h14.50.957,Cued GoNogo Task,2024.2.4,60.022352354468,2025-05-03 14h15.01.125332 +0200,
block/CondBlock2.xlsx,You are about to start a block of type 2 trials.,13,13,0,Go,Go,0.18,0.2,0.05,space,blue,vertical,space,264.5694113000063,None,space,1,0.24982570006977767,None,,,,0,1,1,1,0,13,13,13,671.2836860999232,,,,,,,,,,,,,,,,671.2680963999592,671.2836860999232,671.9831381000113,671.9831381000113,672.4829347999766,672.466548299999,672.467050199979,672.4829347999766,672.6661815999541,672.8491957000224,672.8491957000224,673.1015549999429,space,1,0.24982570006977767,None,673.1049825999653,673.6152281999821,674.6143956999294,674.5984765000176,,,,,,,,,,,,,,,,,000,002,2025-05-03_14h14.50.957,Cued GoNogo Task,2024.2.4,60.022352354468,2025-05-03 14h15.01.125332 +0200,
block/CondBlock2.xlsx,You are about to start a block of type 2 trials.,14,14,0,Go,Go,0.13,0.2,0.05,space,green,vertical,space,264.5694113000063,None,space,1,0.2565658000530675,None,,,,0,1,1,1,0,14,14,14,674.6143956999294,,,,,,,,,,,,,,,,674.5988053999608,674.6143956999294,675.3137430999195,675.3137430999195,675.8134034000104,675.7976145999273,675.7983418999938,675.8134034000104,675.9468290000223,676.1464681000216,676.1464681000216,676.4140871999552,space,1,0.2565658000530675,None,676.4186524000252,676.9293038999895,677.9281885999953,677.912752199918,,,,,,,,,,,,,,,,,000,002,2025-05-03_14h14.50.957,Cued GoNogo Task,2024.2.4,60.022352354468,2025-05-03 14h15.01.125332 +0200,
block/CondBlock2.xlsx,You are about to start a block of type 2 trials.,15,15,0,Go,Go,0.18,0.2,0.05,space,blue,vertical,space,264.5694113000063,None,space,1,0.2698793999152258,None,,,,0,1,1,1,0,15,15,15,677.9281885999953,,,,,,,,,,,,,,,,677.9130918999435,677.9281885999953,678.6278477999149,678.6278477999149,679.1273518999806,679.1115127999801,679.1121542999754,679.1273518999806,679.3111651999643,679.4936898999149,679.4936898999149,679.7782061999897,space,1,0.2698793999152258,None,679.7817658999702,680.2932080000173,681.2923571999418,681.2762600999558,,,,,,,,,,,,,,,,,000,002,2025-05-03_14h14.50.957,Cued GoNogo Task,2024.2.4,60.022352354468,2025-05-03 14h15.01.125332 +0200,
block/CondBlock2.xlsx,You are about to start a block of type 2 trials.,16,16,0,Go,Go,0.24,0.2,0.05,space,green,vertical,space,264.5694113000063,None,space,1,0.32662800000980496,None,,,,0,1,1,1,0,16,16,16,681.2923571999418,,,,,,,,,,,,,,,,681.2765583000146,681.2923571999418,681.9917680999497,681.9917680999497,682.4912486999528,682.4756656999234,682.4762843999779,682.4912486999528,682.7411626999965,682.9243185999803,682.9243185999803,683.2583761999849,space,1,0.32662800000980496,None,683.2625208999962,683.7736205999972,684.7726893000072,684.7568959000055,,,,,,,,,,,,,,,,,000,002,2025-05-03_14h14.50.957,Cued GoNogo Task,2024.2.4,60.022352354468,2025-05-03 14h15.01.125332 +0200,
block/CondBlock2.xlsx,You are about to start a block of type 2 trials.,17,17,0,Go,Go,0.26,0.2,0.05,space,blue,vertical,space,264.5694113000063,None,space,1,0.2943001000676304,None,,,,0,1,1,1,0,17,17,17,684.7726893000072,,,,,,,,,,,,,,,,684.7571589999134,684.7726893000072,685.4721794999205,685.4721794999205,685.9717470000032,685.9553789999336,685.9558201999171,685.9717470000032,686.2380817999365,686.4212363000261,686.4212363000261,686.7223846999696,space,1,0.2943001000676304,None,686.7265614999924,687.2374716999475,688.2366094000172,688.2203947999515,,,,,,,,,,,,,,,,,000,002,2025-05-03_14h14.50.957,Cued GoNogo Task,2024.2.4,60.022352354468,2025-05-03 14h15.01.125332 +0200,
block/CondBlock2.xlsx,You are about to start a block of type 2 trials.,18,18,0,Go,Go,0.1,0.05,0.2,space,blue,horizontal,space,264.5694113000063,None,space,1,0.30791299999691546,None,,,,0,1,1,1,0,18,18,18,688.2366094000172,,,,,,,,,,,,,,,,688.2206104999641,688.2366094000172,688.9358883999521,688.9358883999521,689.4357967999531,689.4195158999646,689.4201810000231,689.4357967999531,689.5356171999592,689.7352470000042,689.7352470000042,690.0529249999672,space,1,0.30791299999691546,None,690.0579346999293,690.5679546999745,691.5671103999484,691.5512055999134,,,,,,,,,,,,,,,,,000,002,2025-05-03_14h14.50.957,Cued GoNogo Task,2024.2.4,60.022352354468,2025-05-03 14h15.01.125332 +0200,
block/CondBlock2.xlsx,You are about to start a block of type 2 trials.,19,19,0,Go,Go,0.46,0.2,0.05,space,blue,vertical,space,264.5694113000063,None,space,1,0.3477486000629142,None,,,,0,1,1,1,0,19,19,19,691.5671103999484,,,,,,,,,,,,,,,,691.551548599964,691.5671103999484,692.266341199982,692.266341199982,692.7659188000252,692.7498979999218,692.750497299945,692.7659188000252,693.2321633999236,693.4154820999829,693.4154820999829,693.7661482000258,space,1,0.3477486000629142,None,693.7701683000196,694.2814896999625,695.2805389999412,695.2644556999439,,,,,,,,,,,,,,,,,000,002,2025-05-03_14h14.50.957,Cued GoNogo Task,2024.2.4,60.022352354468,2025-05-03 14h15.01.125332 +0200,
block/CondBlock2.xlsx,You are about to start a block of type 2 trials.,20,20,0,Go,Go,0.3,0.05,0.2,space,blue,horizontal,space,264.5694113000063,None,space,1,0.23942280001938343,None,,,,0,1,1,1,0,20,20,20,695.2805389999412,,,,,,,,,,,,,,,,695.2646439999808,695.2805389999412,695.979979799944,695.979979799944,696.4795565999812,696.4634700999595,696.4638893000083,696.4795565999812,696.7792756999843,696.9790943999542,696.9790943999542,697.2298285999568,space,1,0.23942280001938343,None,697.2335771999788,697.7452796999132,698.7443925000262,698.7283649999881,,,,,,,,,,,,,,,,,000,002,2025-05-03_14h14.50.957,Cued GoNogo Task,2024.2.4,60.022352354468,2025-05-03 14h15.01.125332 +0200,
block/CondBlock2.xlsx,You are about to start a block of type 2 trials.,21,21,0,Go,Go,0.23,0.05,0.2,space,green,horizontal,space,264.5694113000063,None,space,1,0.2676258999854326,None,,,,0,1,1,1,0,21,21,21,698.7443925000262,,,,,,,,,,,,,,,,698.7285432999488,698.7443925000262,699.4439142999472,699.4439142999472,699.9433890000219,699.9273203000193,699.9277565999655,699.9433890000219,700.176562699955,700.3596351000015,700.3596351000015,700.643765799934,space,1,0.2676258999854326,None,700.6478477999335,701.1590497000143,702.1580865000142,702.1420855999459,,,,,,,,,,,,,,,,,000,002,2025-05-03_14h14.50.957,Cued GoNogo Task,2024.2.4,60.022352354468,2025-05-03 14h15.01.125332 +0200,
block/CondBlock2.xlsx,You are about to start a block of type 2 trials.,22,22,0,Go,Go,0.19,0.2,0.05,space,green,vertical,space,264.5694113000063,None,space,1,0.29568650003056973,None,,,,0,1,1,1,0,22,22,22,702.1580865000142,,,,,,,,,,,,,,,,702.1422836999409,702.1580865000142,702.857610899955,702.857610899955,703.3574110999471,703.3413606999675,703.3419169000117,703.3574110999471,703.5572512999643,703.7403464999516,703.7403464999516,704.0413707999978,space,1,0.29568650003056973,None,704.0458172999788,704.5564432999818,705.5555974999443,705.5398503999459,,,,,,,,,,,,,,,,,000,002,2025-05-03_14h14.50.957,Cued GoNogo Task,2024.2.4,60.022352354468,2025-05-03 14h15.01.125332 +0200,
block/CondBlock2.xlsx,You are about to start a block of type 2 trials.,23,23,0,NoGo,NoGo,0.41,0.2,0.05,none,blue,vertical,space,264.5694113000063,None,None,1,,,,,,0,1,1,1,0,23,23,23,705.5555974999443,,,,,,,,,,,,,,,,705.5401999999303,705.5555974999443,706.2548970999196,706.2548970999196,706.7546737999655,706.7387679999229,706.7394826000091,706.7546737999655,707.1710649000015,707.3540979999816,707.3540979999816,707.8378383999225,None,1,,,707.840444499976,708.3533586999401,709.3523558999877,709.3366624999326,707.8538807999576,707.8538807999576,,,,,,,,,,,,,,,000,002,2025-05-03_14h14.50.957,Cued GoNogo Task,2024.2.4,60.022352354468,2025-05-03 14h15.01.125332 +0200,
block/CondBlock2.xlsx,You are about to start a block of type 2 trials.,24,24,0,Go,Go,0.17,0.2,0.05,space,blue,vertical,space,264.5694113000063,None,space,1,0.22922870004549623,None,,,,0,1,1,1,0,24,24,24,709.3523558999877,,,,,,,,,,,,,,,,709.3370319999522,709.3523558999877,710.0518593000015,710.0518593000015,710.5515480999602,710.5357679999433,710.5366199000273,710.5515480999602,710.7347880000016,710.9179181000218,710.9179181000218,711.1531032000203,space,1,0.22922870004549623,None,711.1593358999817,711.6673075999133,712.666490499978,712.6507270999718,,,,,,,,,,,,,,,,,000,002,2025-05-03_14h14.50.957,Cued GoNogo Task,2024.2.4,60.022352354468,2025-05-03 14h15.01.125332 +0200,
block/CondBlock2.xlsx,You are about to start a block of type 2 trials.,25,25,0,Go,Go,0.27,0.05,0.2,space,blue,horizontal,space,264.5694113000063,None,space,1,0.30310489994008094,None,,,,0,1,1,1,0,25,25,25,712.666490499978,,,,,,,,,,,,,,,,712.6510622999631,712.666490499978,713.3659805000061,713.3659805000061,713.8655833000084,713.8494240000146,713.8501922999276,713.8655833000084,714.1485889999894,714.3316920999205,714.3316920999205,714.6494394999463,space,1,0.30310489994008094,None,714.6536272999365,715.164320699987,716.163732899935,716.1477197000058,,,,,,,,,,,,,,,,,000,002,2025-05-03_14h14.50.957,Cued GoNogo Task,2024.2.4,60.022352354468,2025-05-03 14h15.01.125332 +0200,
block/CondBlock2.xlsx,You are about to start a block of type 2 trials.,26,26,0,Go,Go,0.26,0.05,0.2,space,green,horizontal,space,264.5694113000063,None,space,1,0.3183743000263348,None,,,,0,1,1,1,0,26,26,26,716.163732899935,,,,,,,,,,,,,,,,716.1479787999997,716.163732899935,716.8630142000038,716.8630142000038,717.362496900023,717.3467772000004,717.347473999951,717.362496900023,717.6289716999745,717.8121917999815,717.8121917999815,718.1464945999905,space,1,0.3183743000263348,None,718.1503159999847,718.661419800017,719.6607037999202,719.6448053999338,,,,,,,,,,,,,,,,,000,002,2025-05-03_14h14.50.957,Cued GoNogo Task,2024.2.4,60.022352354468,2025-05-03 14h15.01.125332 +0200,
block/CondBlock2.xlsx,You are about to start a block of type 2 trials.,27,27,0,Go,Go,0.22,0.2,0.05,space,green,vertical,space,264.5694113000063,None,space,1,0.23201060004066676,None,,,,0,1,1,1,0,27,27,27,719.6607037999202,,,,,,,,,,,,,,,,719.6450870999834,719.6607037999202,720.3601009999402,720.3601009999402,720.8597219999647,720.843849399942,720.8444911999395,720.8597219999647,721.0930251999525,721.2759607000044,721.2759607000044,721.5114546000259,space,1,0.23201060004066676,None,721.515663899947,722.0254794999491,723.0245874000248,723.008408099995,,,,,,,,,,,,,,,,,000,002,2025-05-03_14h14.50.957,Cued GoNogo Task,2024.2.4,60.022352354468,2025-05-03 14h15.01.125332 +0200,
block/CondBlock2.xlsx,You are about to start a block of type 2 trials.,28,28,0,Go,Go,0.19,0.05,0.2,space,blue,horizontal,space,264.5694113000063,None,space,1,0.33293059992138296,None,,,,0,1,1,1,0,28,28,28,723.0245874000248,,,,,,,,,,,,,,,,723.0086303999415,723.0245874000248,723.7238029999426,723.7238029999426,724.223616699921,724.2081446999218,724.2091512000188,724.223616699921,724.4234507000074,724.6066430999199,724.6066430999199,724.942169399932,space,1,0.33293059992138296,None,724.9458883999614,725.4559507999802,726.4550884999335,726.4393318999792,,,,,,,,,,,,,,,,,000,002,2025-05-03_14h14.50.957,Cued GoNogo Task,2024.2.4,60.022352354468,2025-05-03 14h15.01.125332 +0200,
block/CondBlock2.xlsx,You are about to start a block of type 2 trials.,29,29,0,Go,Go,0.18,0.05,0.2,space,blue,horizontal,space,264.5694113000063,None,space,1,0.1816806000424549,None,,,,0,1,1,1,0,29,29,29,726.4550884999335,,,,,,,,,,,,,,,,726.4396603999194,726.4550884999335,727.1544147999957,727.1544147999957,727.654159000027,727.6384195999708,727.6392299999716,727.654159000027,727.8374339999864,728.0373263999354,728.0373263999354,728.2216174999485,space,1,0.1816806000424549,None,728.2252932999982,728.7367372999433,729.7357539000222,729.720114100026,,,,,,,,,,,,,,,,,000,002,2025-05-03_14h14.50.957,Cued GoNogo Task,2024.2.4,60.022352354468,2025-05-03 14h15.01.125332 +0200,
block/CondBlock2.xlsx,You are about to start a block of type 2 trials.,30,30,0,NoGo,NoGo,0.23,0.2,0.05,none,blue,vertical,space,264.5694113000063,None,space,0,0.22051100002136081,None,,,,0,1,1,1,0,30,30,30,729.7357539000222,,,,,,,,,,,,,,,,729.7204692999367,729.7357539000222,730.4352911999449,730.4352911999449,730.9347211000277,730.9187018999364,730.9192392999539,730.9347211000277,731.1681584999897,731.3511530000251,731.3511530000251,731.5858129999833,space,0,0.22051100002136081,None,731.5913708999287,732.1006592999911,733.0996272999328,733.0840464999201,,,,,,,,,,,,,,,,,000,002,2025-05-03_14h14.50.957,Cued GoNogo Task,2024.2.4,60.022352354468,2025-05-03 14h15.01.125332 +0200,
block/CondBlock2.xlsx,You are about to start a block of type 2 trials.,31,31,0,Go,Go,0.43,0.2,0.05,space,green,vertical,space,264.5694113000063,None,space,1,0.28805269999429584,None,,,,0,1,1,1,0,31,31,31,733.0996272999328,,,,,,,,,,,,,,,,733.0843429999659,733.0996272999328,733.7989508999744,733.7989508999744,734.2985601000255,734.2829207999166,734.2836458999664,734.2985601000255,734.7316934999544,734.9314778000116,734.9314778000116,735.2322362000123,space,1,0.28805269999429584,None,735.2365872999653,735.7476823999314,736.7467548999703,736.7306662999326,,,,,,,,,,,,,,,,,000,002,2025-05-03_14h14.50.957,Cued GoNogo Task,2024.2.4,60.022352354468,2025-05-03 14h15.01.125332 +0200,
block/CondBlock2.xlsx,You are about to start a block of type 2 trials.,32,32,0,Go,Go,0.13,0.05,0.2,space,blue,horizontal,space,264.5694113000063,None,space,1,0.31012970011215657,None,,,,0,1,1,1,0,32,32,32,736.7467548999703,,,,,,,,,,,,,,,,736.7309393999167,736.7467548999703,737.4462142999982,737.4462142999982,737.9457154999254,737.9296815999551,737.9302526999963,737.9457154999254,738.0788578999927,738.261971400003,738.261971400003,738.5796290999278,space,1,0.31012970011215657,None,738.5836681999499,739.0947459000163,740.093926499947,740.0780765999807,,,,,,,,,,,,,,,,,000,002,2025-05-03_14h14.50.957,Cued GoNogo Task,2024.2.4,60.022352354468,2025-05-03 14h15.01.125332 +0200,
block/CondBlock2.xlsx,You are about to start a block of type 2 trials.,33,33,0,Go,Go,0.45,0.05,0.2,space,green,horizontal,space,264.5694113000063,None,space,1,0.3081788000417873,None,,,,0,1,1,1,0,33,33,33,740.093926499947,,,,,,,,,,,,,,,,740.0784441999858,740.093926499947,740.7932480999734,740.7932480999734,741.292912999983,741.2765970999608,741.2770606999984,741.292912999983,741.7425757999299,741.9425343999173,741.9425343999173,742.2599877999164,space,1,0.3081788000417873,None,742.2662688000128,742.7751031999942,743.7742439999711,743.7584669999778,,,,,,,,,,,,,,,,,000,002,2025-05-03_14h14.50.957,Cued GoNogo Task,2024.2.4,60.022352354468,2025-05-03 14h15.01.125332 +0200,
block/CondBlock2.xlsx,You are about to start a block of type 2 trials.,34,34,0,Go,Go,0.14,0.2,0.05,space,blue,vertical,space,264.5694113000063,None,space,1,0.3048618999309838,None,,,,0,1,1,1,0,34,34,34,743.7742439999711,,,,,,,,,,,,,,,,743.758729299996,743.7742439999711,744.4736908000195,744.4736908000195,744.9731827999931,744.9571515999269,744.9577723999973,744.9731827999931,745.1231209000107,745.3061950999545,745.3061950999545,745.6235149999848,space,1,0.3048618999309838,None,745.6267436000053,746.1388047999935,747.1382017999422,747.1219254999887,,,,,,,,,,,,,,,,,000,002,2025-05-03_14h14.50.957,Cued GoNogo Task,2024.2.4,60.022352354468,2025-05-03 14h15.01.125332 +0200,
block/CondBlock2.xlsx,You are about to start a block of type 2 trials.,35,35,0,Go,Go,0.11,0.2,0.05,space,blue,vertical,space,264.5694113000063,None,space,1,0.25387030001729727,None,,,,0,1,1,1,0,35,35,35,747.1382017999422,,,,,,,,,,,,,,,,747.1222223999212,747.1382017999422,747.8374299999559,747.8374299999559,748.3370399000123,748.3212487000274,748.3219439999666,748.3370399000123,748.4538494999288,748.6369087999919,748.6369087999919,748.9046265999787,space,1,0.25387030001729727,None,748.9090945000062,749.4195402999176,750.4186809000093,750.4027190000052,,,,,,,,,,,,,,,,,000,002,2025-05-03_14h14.50.957,Cued GoNogo Task,2024.2.4,60.022352354468,2025-05-03 14h15.01.125332 +0200,
block/CondBlock2.xlsx,You are about to start a block of type 2 trials.,36,36,0,Go,Go,0.15,0.05,0.2,space,green,horizontal,space,264.5694113000063,None,space,1,0.25093940005172044,None,,,,0,1,1,1,0,36,36,36,750.4186809000093,,,,,,,,,,,,,,,,750.4029584999662,750.4186809000093,751.1181121999398,751.1181121999398,751.6176424999721,751.6018934999593,751.6026986999204,751.6176424999721,751.7675671000034,751.967616399983,751.967616399983,752.234930699924,space,1,0.25093940005172044,None,752.2402932000114,752.7501444999361,753.7493642999325,753.7335931999842,,,,,,,,,,,,,,,,,000,002,2025-05-03_14h14.50.957,Cued GoNogo Task,2024.2.4,60.022352354468,2025-05-03 14h15.01.125332 +0200,
block/CondBlock2.xlsx,You are about to start a block of type 2 trials.,37,37,0,Go,Go,0.15,0.2,0.05,space,green,vertical,space,264.5694113000063,None,space,1,0.20095790002960712,None,,,,0,1,1,1,0,37,37,37,753.7493642999325,,,,,,,,,,,,,,,,753.7338882000186,753.7493642999325,754.4487536000088,754.4487536000088,754.9483547999989,754.9327920000069,754.9333834999707,754.9483547999989,755.0983031999785,755.2982127999421,755.2982127999421,755.5155512000201,space,1,0.20095790002960712,None,755.5213425999973,756.0310164999682,,757.0301930999849,,,,,,,,,,,,,,,,,000,002,2025-05-03_14h14.50.957,Cued GoNogo Task,2024.2.4,60.022352354468,2025-05-03 14h15.01.125332 +0200,
block/CondBlock2.xlsx,You are about to start a block of type 2 trials.,38,38,0,NoGo,NoGo,0.14,0.2,0.05,none,green,vertical,space,264.5694113000063,None,space,0,0.24217320000752807,None,,,,0,1,1,1,0,38,38,38,757.0468012000201,,,,,,,,,,,,,,,,757.0304020999465,757.0468012000201,757.7294598999433,757.746296999976,758.2288839999819,758.2131146999309,758.2138199999463,758.2288839999819,758.3788442999357,758.5619408999337,758.5619408999337,758.8130961999996,space,0,0.24217320000752807,None,758.8179725999944,759.3280703999335,760.3272348999744,760.3117029999848,,,,,,,,,,,,,,,,,000,002,2025-05-03_14h14.50.957,Cued GoNogo Task,2024.2.4,60.022352354468,2025-05-03 14h15.01.125332 +0200,
block/CondBlock2.xlsx,You are about to start a block of type 2 trials.,39,39,0,Go,Go,0.46,0.2,0.05,space,green,vertical,space,264.5694113000063,None,space,1,0.3231685000937432,None,,,,0,1,1,1,0,39,39,39,760.3272348999744,,,,,,,,,,,,,,,,760.3121539999265,760.3272348999744,761.0266783999978,761.0266783999978,761.5261503999354,761.5104316999204,761.5110455999384,761.5261503999354,761.9926099999575,762.1758760999655,762.1758760999655,762.5098550999537,space,1,0.3231685000937432,None,762.5136889999267,763.02507470001,764.0242616999894,764.0083463999908,,,,,,,,,,,,,,,,,000,002,2025-05-03_14h14.50.957,Cued GoNogo Task,2024.2.4,60.022352354468,2025-05-03 14h15.01.125332 +0200,
block/CondBlock2.xlsx,You are about to start a block of type 2 trials.,40,40,0,Go,Go,0.5,0.05,0.2,space,blue,horizontal,space,264.5694113000063,None,space,1,0.3365263999439776,None,,,,0,1,1,1,0,40,40,40,764.0242616999894,,,,,,,,,,,,,,,,764.0086556000169,764.0242616999894,764.7235813000007,764.7235813000007,765.2231927999528,765.2074769999599,765.2084494999144,765.2231927999528,765.7228621999966,765.9226087999996,765.9226087999996,766.273670500028,space,1,0.3365263999439776,None,766.2780892999144,766.7887203999562,767.7877931999974,767.7720825999277,,,,,,,,,,,,,,,,,000,002,2025-05-03_14h14.50.957,Cued GoNogo Task,2024.2.4,60.022352354468,2025-05-03 14h15.01.125332 +0200,
block/CondBlock2.xlsx,You are about to start a block of type 2 trials.,41,41,0,Go,Go,0.16,0.05,0.2,space,green,horizontal,space,264.5694113000063,None,space,1,0.30701679992489517,None,,,,0,1,1,1,0,41,41,41,767.7877931999974,,,,,,,,,,,,,,,,767.7723687000107,767.7877931999974,768.4870866999263,768.4870866999263,768.9868015999673,768.9709782999707,768.9715519999154,768.9868015999673,769.1533134999918,769.3364976999583,769.3364976999583,769.6539922999218,space,1,0.30701679992489517,None,769.65816979995,770.1691191999707,771.1682860999135,771.1524142000126,,,,,,,,,,,,,,,,,000,002,2025-05-03_14h14.50.957,Cued GoNogo Task,2024.2.4,60.022352354468,2025-05-03 14h15.01.125332 +0200,
