Block,blockMsg,thisN,thisTrialN,thisRepN,CueType,StimType,CueTime,Stim_Height,Stim_Width,CRESP,Color,Orientation,key_resp_2.keys,key_resp_2.rt,key_resp_2.duration,Key_Resp.keys,Key_Resp.corr,Key_Resp.rt,Key_Resp.duration,key_resp_3.keys,key_resp_3.rt,key_resp_3.duration,Blocks.thisRepN,Blocks.thisTrialN,Blocks.thisN,Blocks.thisIndex,Trials.thisRepN,Trials.thisTrialN,Trials.thisN,Trials.thisIndex,thisRow.t,notes,TaskIntro.started,fixation.started,key_resp.started,TaskIntro.stopped,key_resp.keys,key_resp.rt,key_resp.duration,BlockStart.started,BlockStart_Msg.started,key_resp_2.started,BlockStart.stopped,Blocks.key_resp_2.keys,Blocks.key_resp_2.rt,Blocks.key_resp_2.duration,Fixation.started,FixationPhase.started,Blank.started,FixationPhase.stopped,Blank.stopped,Fixation.stopped,Trial.started,Cue.started,Cue.stopped,GoNogo_Stim.started,Key_Resp.started,Trial.stopped,Trials.Key_Resp.keys,Trials.Key_Resp.corr,Trials.Key_Resp.rt,Trials.Key_Resp.duration,Feedback.started,Feedback_Present.started,Feedback_Present.stopped,Feedback.stopped,GoNogo_Stim.stopped,Key_Resp.stopped,BlockEnd.started,BlockEnd_Msg.started,key_resp_3.started,BlockEnd.stopped,Blocks.key_resp_3.keys,Blocks.key_resp_3.rt,Blocks.key_resp_3.duration,TaskEnd.started,ThankYou.started,key_resp_4.started,TaskEnd.stopped,key_resp_4.keys,key_resp_4.rt,key_resp_4.duration,participant,session,date,expName,psychopyVersion,frameRate,expStart,
,,,,,,,,,,,,,,,,,,,,,,,,,,,,,,,,,0.0022054999135434628,0.005184899899177253,0.005184899899177253,43.52556379989255,space,43.507067600032315,None,,,,,,,,,,,,,,,,,,,,,,,,,,,,,,,,,,,,,,,,,,,,006,001,2025-04-30_00h39.00.775,Cued GoNogo Task,2024.2.4,60.14979708892638,2025-04-30 00h39.07.906289 +0200,
block/CondBlock1.xlsx,You are about to start a block of type 1 trials.,0,0,0,Go,Go,0.13,0.05,0.2,space,blue,horizontal,space,2.5573424000758678,None,space,1,0.2604550999822095,None,,,,0,0,0,0,0,0,0,0,46.17024029989261,,,,,,,,,43.53544329991564,43.53835859999526,43.53835859999526,46.10421429993585,space,2.5573424000758678,None,46.16696469997987,46.17024029989261,46.81891689996701,46.88567599991802,47.31856909999624,47.30289689998608,47.303681499906816,47.31856909999624,47.451876499922946,47.63495709991548,47.63495709991548,47.902439899975434,space,1,0.2604550999822095,None,47.91330979997292,48.417626199894585,49.41694889997598,49.400742499972694,,,,,,,,,,,,,,,,,006,001,2025-04-30_00h39.00.775,Cued GoNogo Task,2024.2.4,60.14979708892638,2025-04-30 00h39.07.906289 +0200,
block/CondBlock1.xlsx,You are about to start a block of type 1 trials.,1,1,0,NoGo,NoGo,0.43,0.05,0.2,none,blue,horizontal,space,2.5573424000758678,None,None,1,,,,,,0,0,0,0,0,1,1,1,49.41694889997598,,,,,,,,,,,,,,,,49.400964799919166,49.41694889997598,50.116259099915624,50.116259099915624,50.615815199911594,50.600170099991374,50.60097539995331,50.615815199911594,51.04880859993864,51.23245219991077,51.23245219991077,51.71588749997318,None,1,,,51.72010199993383,52.23115579993464,53.23028759995941,53.21448529988993,51.73159629991278,51.73159629991278,,,,,,,,,,,,,,,006,001,2025-04-30_00h39.00.775,Cued GoNogo Task,2024.2.4,60.14979708892638,2025-04-30 00h39.07.906289 +0200,
block/CondBlock1.xlsx,You are about to start a block of type 1 trials.,2,2,0,Go,Go,0.12,0.2,0.05,space,blue,vertical,space,2.5573424000758678,None,space,1,0.12540499994065613,None,,,,0,0,0,0,0,2,2,2,53.23028759995941,,,,,,,,,,,,,,,,53.21486039995216,53.23028759995941,53.929912699968554,53.929912699968554,54.42932669993024,54.41341029992327,54.41397569992114,54.42932669993024,54.562469699885696,54.745731899980456,54.745731899980456,54.880016399896704,space,1,0.12540499994065613,None,54.88488049991429,55.39523879997432,56.394388799904846,56.378260399913415,,,,,,,,,,,,,,,,,006,001,2025-04-30_00h39.00.775,Cued GoNogo Task,2024.2.4,60.14979708892638,2025-04-30 00h39.07.906289 +0200,
block/CondBlock1.xlsx,You are about to start a block of type 1 trials.,3,3,0,NoGo,NoGo,0.18,0.2,0.05,none,green,vertical,space,2.5573424000758678,None,None,1,,,,,,0,0,0,0,0,3,3,3,56.394388799904846,,,,,,,,,,,,,,,,56.378530099987984,56.394388799904846,57.093820399953984,57.093820399953984,57.59346659993753,57.57784769998398,57.57860679994337,57.59346659993753,57.776867599925026,57.95974149997346,57.95974149997346,58.44342449994292,None,1,,,58.4464531999547,58.95886629994493,59.95812489988748,59.94213189999573,58.45940159994643,58.45940159994643,,,,,,,,,,,,,,,006,001,2025-04-30_00h39.00.775,Cued GoNogo Task,2024.2.4,60.14979708892638,2025-04-30 00h39.07.906289 +0200,
block/CondBlock1.xlsx,You are about to start a block of type 1 trials.,4,4,0,Go,Go,0.24,0.05,0.2,space,green,horizontal,space,2.5573424000758678,None,space,1,0.18493800004944205,None,,,,0,0,0,0,0,4,4,4,59.95812489988748,,,,,,,,,,,,,,,,59.94247589993756,59.95812489988748,60.65766569995321,60.65766569995321,61.15709579992108,61.141515699913725,61.14218549989164,61.15709579992108,61.40704510000069,61.59010149992537,61.59010149992537,61.79143469990231,space,1,0.18493800004944205,None,61.79783229995519,62.30644369998481,,63.30555649998132,,,,,,,,,,,,,,,,,006,001,2025-04-30_00h39.00.775,Cued GoNogo Task,2024.2.4,60.14979708892638,2025-04-30 00h39.07.906289 +0200,
block/CondBlock1.xlsx,You are about to start a block of type 1 trials.,5,5,0,Go,Go,0.21,0.05,0.2,space,blue,horizontal,space,2.5573424000758678,None,space,1,0.10330610000528395,None,,,,0,0,0,0,0,5,5,5,63.32200559997,,,,,,,,,,,,,,,,63.30584819999058,63.32200559997,64.00479679997079,64.02127849997487,64.50432119995821,64.48825819999911,64.48863189993426,64.50432119995821,64.72088769997936,64.90386069996748,64.90386069996748,65.02185799996369,space,1,0.10330610000528395,None,65.02587979997043,65.53702769998927,66.53621269995347,66.52035479992628,,,,,,,,,,,,,,,,,006,001,2025-04-30_00h39.00.775,Cued GoNogo Task,2024.2.4,60.14979708892638,2025-04-30 00h39.07.906289 +0200,
block/CondBlock1.xlsx,You are about to start a block of type 1 trials.,6,6,0,Go,Go,0.11,0.2,0.05,space,blue,vertical,space,2.5573424000758678,None,space,1,0.13363160006701946,None,,,,0,0,0,0,0,6,6,6,66.53621269995347,,,,,,,,,,,,,,,,66.5207210999215,66.53621269995347,67.23557629995048,67.23557629995048,67.73514719994273,67.71902899991255,67.71974229998887,67.73514719994273,67.85168989992235,68.0348904998973,68.0348904998973,68.17134789994452,space,1,0.13363160006701946,None,68.17626310000196,68.68439439998474,69.68356299994048,69.66780129994731,,,,,,,,,,,,,,,,,006,001,2025-04-30_00h39.00.775,Cued GoNogo Task,2024.2.4,60.14979708892638,2025-04-30 00h39.07.906289 +0200,
block/CondBlock1.xlsx,You are about to start a block of type 1 trials.,7,7,0,Go,Go,0.15,0.2,0.05,space,blue,vertical,space,2.5573424000758678,None,space,1,0.1275057999882847,None,,,,0,0,0,0,0,7,7,7,69.68356299994048,,,,,,,,,,,,,,,,69.6681412999751,69.68356299994048,70.38298929994926,70.38298929994926,70.88246100000106,70.86648959992453,70.8670412999345,70.88246100000106,71.0324056999525,71.23230739997234,71.23230739997234,71.36635369993746,space,1,0.1275057999882847,None,71.37173649994656,71.8817568999948,72.88079329999164,72.8647415000014,,,,,,,,,,,,,,,,,006,001,2025-04-30_00h39.00.775,Cued GoNogo Task,2024.2.4,60.14979708892638,2025-04-30 00h39.07.906289 +0200,
block/CondBlock1.xlsx,You are about to start a block of type 1 trials.,8,8,0,NoGo,NoGo,0.3,0.05,0.2,none,blue,horizontal,space,2.5573424000758678,None,space,0,0.17187930003274232,None,,,,0,0,0,0,0,8,8,8,72.88079329999164,,,,,,,,,,,,,,,,72.86504889989737,72.88079329999164,73.58026739989873,73.58026739989873,74.07996119989548,74.06433829991147,74.06521139992401,74.07996119989548,74.37957809993532,74.57956230000127,74.57956230000127,74.76424009993207,space,0,0.17187930003274232,None,74.7738089999184,75.27900859992951,76.27834799990524,76.2622463000007,,,,,,,,,,,,,,,,,006,001,2025-04-30_00h39.00.775,Cued GoNogo Task,2024.2.4,60.14979708892638,2025-04-30 00h39.07.906289 +0200,
block/CondBlock1.xlsx,You are about to start a block of type 1 trials.,9,9,0,NoGo,NoGo,0.17,0.05,0.2,none,blue,horizontal,space,2.5573424000758678,None,None,1,,,,,,0,0,0,0,0,9,9,9,76.27834799990524,,,,,,,,,,,,,,,,76.26257799996529,76.27834799990524,76.977559599909,76.977559599909,77.47719599993434,77.46095359988976,77.46150679991115,77.47719599993434,77.66025629988872,77.84355049999431,77.84355049999431,78.32708219997585,None,1,,,78.33038269996177,78.84265169990249,79.84186329995282,79.82575109996833,78.34309149999171,78.34309149999171,,,,,,,,,,,,,,,006,001,2025-04-30_00h39.00.775,Cued GoNogo Task,2024.2.4,60.14979708892638,2025-04-30 00h39.07.906289 +0200,
block/CondBlock1.xlsx,You are about to start a block of type 1 trials.,10,10,0,NoGo,NoGo,0.26,0.2,0.05,none,green,vertical,space,2.5573424000758678,None,None,1,,,,,,0,0,0,0,0,10,10,10,79.84186329995282,,,,,,,,,,,,,,,,79.82598219998181,79.84186329995282,80.5412124999566,80.5412124999566,81.04074459988624,81.02515109989326,81.02593789994717,81.04074459988624,81.3071766999783,81.49054719996639,81.49054719996639,81.97385079995729,None,1,,,81.97413109999616,82.47304109996185,83.4721643999219,83.45631699997466,81.98998199997004,81.98998199997004,,,,,,,,,,,,,,,006,001,2025-04-30_00h39.00.775,Cued GoNogo Task,2024.2.4,60.14979708892638,2025-04-30 00h39.07.906289 +0200,
block/CondBlock1.xlsx,You are about to start a block of type 1 trials.,11,11,0,Go,Go,0.27,0.05,0.2,space,green,horizontal,space,2.5573424000758678,None,space,1,0.10989449999760836,None,,,,0,0,0,0,0,11,11,11,83.4721643999219,,,,,,,,,,,,,,,,83.4565952999983,83.48883689998183,84.18826729990542,84.18826729990542,84.6877604998881,84.67261679994408,84.67359609995037,84.6877604998881,84.97094849997666,85.15411019988824,85.15411019988824,85.27177919994574,space,1,0.10989449999760836,None,85.2764496000018,85.78692469990347,86.7862943999935,86.77042039996013,,,,,,,,,,,,,,,,,006,001,2025-04-30_00h39.00.775,Cued GoNogo Task,2024.2.4,60.14979708892638,2025-04-30 00h39.07.906289 +0200,
block/CondBlock1.xlsx,You are about to start a block of type 1 trials.,12,12,0,Go,Go,0.16,0.2,0.05,space,green,vertical,space,2.5573424000758678,None,space,1,0.16834980004932731,None,,,,0,0,0,0,0,12,12,12,86.7862943999935,,,,,,,,,,,,,,,,86.7708020999562,86.7862943999935,87.48550059995614,87.48550059995614,87.98513399995863,87.96885409997776,87.96935959998518,87.98513399995863,88.15164729999378,88.3347335999133,88.3347335999133,88.51962829998229,space,1,0.16834980004932731,None,88.52504619990941,89.03442019992508,90.0333202999318,90.0178396999836,,,,,,,,,,,,,,,,,006,001,2025-04-30_00h39.00.775,Cued GoNogo Task,2024.2.4,60.14979708892638,2025-04-30 00h39.07.906289 +0200,
block/CondBlock1.xlsx,You are about to start a block of type 1 trials.,13,13,0,Go,Go,0.13,0.2,0.05,space,green,vertical,space,2.5573424000758678,None,space,1,0.19584920001216233,None,,,,0,0,0,0,0,13,13,13,90.0333202999318,,,,,,,,,,,,,,,,90.01819339999929,90.0333202999318,90.73278969991952,90.73278969991952,91.23246889992151,91.21660369995516,91.21738509996794,91.23246889992151,91.36568729998544,91.54903289990034,91.54903289990034,91.74994969996624,space,1,0.19584920001216233,None,91.75443779991474,92.2649985998869,93.26414159999695,93.24843879998662,,,,,,,,,,,,,,,,,006,001,2025-04-30_00h39.00.775,Cued GoNogo Task,2024.2.4,60.14979708892638,2025-04-30 00h39.07.906289 +0200,
block/CondBlock1.xlsx,You are about to start a block of type 1 trials.,14,14,0,Go,Go,0.12,0.05,0.2,space,blue,horizontal,space,2.5573424000758678,None,space,1,0.19631559995468706,None,,,,0,0,0,0,0,14,14,14,93.26414159999695,,,,,,,,,,,,,,,,93.24881219991948,93.26414159999695,93.96358539990615,93.96358539990615,94.46317719994113,94.4469695999287,94.44750059989747,94.46317719994113,94.59658359992318,94.77968199993484,94.77968199993484,94.98042149993125,space,1,0.19631559995468706,None,94.9842543998966,95.49567569990177,96.49484689999372,96.47887769993395,,,,,,,,,,,,,,,,,006,001,2025-04-30_00h39.00.775,Cued GoNogo Task,2024.2.4,60.14979708892638,2025-04-30 00h39.07.906289 +0200,
block/CondBlock1.xlsx,You are about to start a block of type 1 trials.,15,15,0,Go,Go,0.45,0.2,0.05,space,blue,vertical,space,2.5573424000758678,None,space,1,0.08869449992198497,None,,,,0,0,0,0,0,15,15,15,96.49484689999372,,,,,,,,,,,,,,,,96.47912289993837,96.49484689999372,97.19433849991765,97.19433849991765,97.69387999991886,97.67782829992939,97.67848389991559,97.69387999991886,98.14349679998122,98.34330969990697,98.34330969990697,98.44421009998769,space,1,0.08869449992198497,None,98.44766319997143,98.9594342999626,99.95855319988914,99.94276439992245,,,,,,,,,,,,,,,,,006,001,2025-04-30_00h39.00.775,Cued GoNogo Task,2024.2.4,60.14979708892638,2025-04-30 00h39.07.906289 +0200,
block/CondBlock1.xlsx,You are about to start a block of type 1 trials.,16,16,0,NoGo,NoGo,0.14,0.2,0.05,none,green,vertical,space,2.5573424000758678,None,None,1,,,,,,0,0,0,0,0,16,16,16,99.95855319988914,,,,,,,,,,,,,,,,99.94307529996149,99.95855319988914,100.6580602999311,100.6580602999311,101.15767299989238,101.14221269998234,101.14318719995208,101.15767299989238,101.30781659996137,101.4908234999748,101.4908234999748,101.97458489995915,None,1,,,101.97771979996469,102.4899631999433,103.48901709995698,103.4730282999808,101.9902749999892,101.9902749999892,,,,,,,,,,,,,,,006,001,2025-04-30_00h39.00.775,Cued GoNogo Task,2024.2.4,60.14979708892638,2025-04-30 00h39.07.906289 +0200,
block/CondBlock1.xlsx,You are about to start a block of type 1 trials.,17,17,0,Go,Go,0.12,0.05,0.2,space,green,horizontal,space,2.5573424000758678,None,space,1,0.1396577999694273,None,,,,0,0,0,0,0,17,17,17,103.48901709995698,,,,,,,,,,,,,,,,103.47327789990231,103.48901709995698,104.18844039994292,104.18844039994292,104.68806179997046,104.6723450999707,104.67300009995233,104.68806179997046,104.82135089999065,105.00440699991304,105.00440699991304,105.15582999994513,space,1,0.1396577999694273,None,105.15994319994934,105.67066199996043,106.66965429997072,106.65402869996615,,,,,,,,,,,,,,,,,006,001,2025-04-30_00h39.00.775,Cued GoNogo Task,2024.2.4,60.14979708892638,2025-04-30 00h39.07.906289 +0200,
block/CondBlock1.xlsx,You are about to start a block of type 1 trials.,18,18,0,Go,Go,0.47,0.2,0.05,space,blue,vertical,space,2.5573424000758678,None,space,1,0.07368310005404055,None,,,,0,0,0,0,0,18,18,18,106.66965429997072,,,,,,,,,,,,,,,,106.65436469996348,106.66965429997072,107.3690409999108,107.3690409999108,107.86894659989048,107.85332099988591,107.8542094998993,107.86894659989048,108.35174509999342,108.53488289995585,108.53488289995585,108.61977019999176,space,1,0.07368310005404055,None,108.62415609997697,109.13446449988987,110.13356649992056,110.11801219999325,,,,,,,,,,,,,,,,,006,001,2025-04-30_00h39.00.775,Cued GoNogo Task,2024.2.4,60.14979708892638,2025-04-30 00h39.07.906289 +0200,
block/CondBlock1.xlsx,You are about to start a block of type 1 trials.,19,19,0,Go,Go,0.18,0.2,0.05,space,green,vertical,space,2.5573424000758678,None,space,1,0.18071250000502914,None,,,,0,0,0,0,0,19,19,19,110.13356649992056,,,,,,,,,,,,,,,,110.11840819998179,110.13356649992056,110.83307329996023,110.83307329996023,111.33261619997211,111.31673819990829,111.31742219999433,111.33261619997211,111.51581089990214,111.69901399989612,111.69901399989612,111.88348159997258,space,1,0.18071250000502914,None,111.8881543999305,112.39824739994947,113.3974858999718,113.3816551999189,,,,,,,,,,,,,,,,,006,001,2025-04-30_00h39.00.775,Cued GoNogo Task,2024.2.4,60.14979708892638,2025-04-30 00h39.07.906289 +0200,
block/CondBlock1.xlsx,You are about to start a block of type 1 trials.,20,20,0,Go,Go,0.19,0.2,0.05,space,blue,vertical,space,2.5573424000758678,None,space,1,0.1561335000442341,None,,,,0,0,0,0,0,20,20,20,113.3974858999718,,,,,,,,,,,,,,,,113.3819164999295,113.3974858999718,114.0970577999251,114.0970577999251,114.59646779997274,114.58104889991228,114.58178739994764,114.59646779997274,114.79635509999935,114.97956859995611,114.97956859995611,115.1477950999979,space,1,0.1561335000442341,None,115.15219559997786,115.66238159989007,116.6615491999546,116.64590969996061,,,,,,,,,,,,,,,,,006,001,2025-04-30_00h39.00.775,Cued GoNogo Task,2024.2.4,60.14979708892638,2025-04-30 00h39.07.906289 +0200,
block/CondBlock1.xlsx,You are about to start a block of type 1 trials.,21,21,0,Go,Go,0.14,0.2,0.05,space,blue,vertical,space,2.5573424000758678,None,space,1,0.15866999991703779,None,,,,0,0,0,0,0,21,21,21,116.6615491999546,,,,,,,,,,,,,,,,116.64628399990033,116.6615491999546,117.36077319993638,117.36077319993638,117.86055309989024,117.84463039995171,117.84529699990526,117.86055309989024,118.01039969990961,118.19368079991546,118.19368079991546,118.36126339994371,space,1,0.15866999991703779,None,118.36839809990488,118.87637849990278,119.87554999999702,119.85995799989905,,,,,,,,,,,,,,,,,006,001,2025-04-30_00h39.00.775,Cued GoNogo Task,2024.2.4,60.14979708892638,2025-04-30 00h39.07.906289 +0200,
block/CondBlock1.xlsx,You are about to start a block of type 1 trials.,22,22,0,Go,Go,0.15,0.2,0.05,space,blue,vertical,space,2.5573424000758678,None,space,1,0.09644610004033893,None,,,,0,0,0,0,0,22,22,22,119.87554999999702,,,,,,,,,,,,,,,,119.86032489989884,119.87554999999702,120.57491989992559,120.57491989992559,121.07457089994568,121.05874289991334,121.05944250000175,121.07457089994568,121.2244077998912,121.4242681999458,121.4242681999458,121.52559889992699,space,1,0.09644610004033893,None,121.53117239999119,122.04042579990346,123.03963059990201,123.0235631999094,,,,,,,,,,,,,,,,,006,001,2025-04-30_00h39.00.775,Cued GoNogo Task,2024.2.4,60.14979708892638,2025-04-30 00h39.07.906289 +0200,
block/CondBlock1.xlsx,You are about to start a block of type 1 trials.,23,23,0,Go,Go,0.23,0.05,0.2,space,green,horizontal,space,2.5573424000758678,None,space,1,0.18412220000755042,None,,,,0,0,0,0,0,23,23,23,123.03963059990201,,,,,,,,,,,,,,,,123.02381359995343,123.03963059990201,123.73921259993222,123.73921259993222,124.23873929993715,124.22298899991438,124.2239847999299,124.23873929993715,124.47181289992295,124.6550859999843,124.6550859999843,124.85610189998988,space,1,0.18412220000755042,None,124.86026159999892,125.37109619996045,126.37018309999257,126.35429239994846,,,,,,,,,,,,,,,,,006,001,2025-04-30_00h39.00.775,Cued GoNogo Task,2024.2.4,60.14979708892638,2025-04-30 00h39.07.906289 +0200,
block/CondBlock1.xlsx,You are about to start a block of type 1 trials.,24,24,0,Go,Go,0.2,0.2,0.05,space,blue,vertical,space,2.5573424000758678,None,space,1,0.12788579997140914,None,,,,0,0,0,0,0,24,24,24,126.37018309999257,,,,,,,,,,,,,,,,126.35457649989985,126.37018309999257,127.06959689990617,127.06959689990617,127.56937129993457,127.55331129999831,127.553941299906,127.56937129993457,127.76904809998814,127.96886449994054,127.96886449994054,128.10340319992974,space,1,0.12788579997140914,None,128.10753799998201,128.61838269990403,129.6174808999058,129.60183269996196,,,,,,,,,,,,,,,,,006,001,2025-04-30_00h39.00.775,Cued GoNogo Task,2024.2.4,60.14979708892638,2025-04-30 00h39.07.906289 +0200,
block/CondBlock1.xlsx,You are about to start a block of type 1 trials.,25,25,0,Go,Go,0.15,0.2,0.05,space,blue,vertical,space,2.5573424000758678,None,space,1,0.10614539997186512,None,,,,0,0,0,0,0,25,25,25,129.6174808999058,,,,,,,,,,,,,,,,129.60217729990836,129.6174808999058,130.31701020000037,130.31701020000037,130.81660019990522,130.80085020000115,130.8017343999818,130.81660019990522,130.96650159999263,131.1664155999897,131.1664155999897,131.28428219992202,space,1,0.10614539997186512,None,131.28825149999466,131.7991874999134,132.79830139991827,132.78259699989576,,,,,,,,,,,,,,,,,006,001,2025-04-30_00h39.00.775,Cued GoNogo Task,2024.2.4,60.14979708892638,2025-04-30 00h39.07.906289 +0200,
block/CondBlock1.xlsx,You are about to start a block of type 1 trials.,26,26,0,NoGo,NoGo,0.2,0.2,0.05,none,blue,vertical,space,2.5573424000758678,None,None,1,,,,,,0,0,0,0,0,26,26,26,132.79830139991827,,,,,,,,,,,,,,,,132.7829083999386,132.79830139991827,133.49768819997553,133.49768819997553,133.99730839999393,133.98137769999448,133.98202229989693,133.99730839999393,134.19716069998685,134.3967937999405,134.3967937999405,134.88085849990603,None,1,,,134.88405429990962,135.39608159998897,136.39526429993566,136.37953399994876,134.89659179991577,134.89659179991577,,,,,,,,,,,,,,,006,001,2025-04-30_00h39.00.775,Cued GoNogo Task,2024.2.4,60.14979708892638,2025-04-30 00h39.07.906289 +0200,
block/CondBlock1.xlsx,You are about to start a block of type 1 trials.,27,27,0,Go,Go,0.29,0.05,0.2,space,green,horizontal,space,2.5573424000758678,None,space,1,0.17902080004569143,None,,,,0,0,0,0,0,27,27,27,136.39526429993566,,,,,,,,,,,,,,,,136.3800709999632,136.39526429993566,137.09474879992194,137.09474879992194,137.5941866999492,137.57851839996874,137.579319799901,137.5941866999492,137.89413709996734,138.0772217999911,138.0772217999911,138.26117649988737,space,1,0.17902080004569143,None,138.26519279996864,138.77672889991663,139.77572759997565,139.75976960000116,,,,,,,,,,,,,,,,,006,001,2025-04-30_00h39.00.775,Cued GoNogo Task,2024.2.4,60.14979708892638,2025-04-30 00h39.07.906289 +0200,
block/CondBlock1.xlsx,You are about to start a block of type 1 trials.,28,28,0,Go,Go,0.24,0.2,0.05,space,blue,vertical,space,2.5573424000758678,None,space,1,0.1841595999430865,None,,,,0,0,0,0,0,28,28,28,139.77572759997565,,,,,,,,,,,,,,,,139.7600196999265,139.77572759997565,140.47510979999788,140.47510979999788,140.9747384999646,140.9589361998951,140.95964469993487,140.9747384999646,141.2246310999617,141.40776749991346,141.40776749991346,141.6088823999744,space,1,0.1841595999430865,None,141.61332839995157,142.12399649992585,143.12295979994815,143.1071770999115,,,,,,,,,,,,,,,,,006,001,2025-04-30_00h39.00.775,Cued GoNogo Task,2024.2.4,60.14979708892638,2025-04-30 00h39.07.906289 +0200,
block/CondBlock1.xlsx,You are about to start a block of type 1 trials.,29,29,0,Go,Go,0.15,0.05,0.2,space,green,horizontal,space,2.5573424000758678,None,space,1,0.12767129996791482,None,,,,0,0,0,0,0,29,29,29,143.12295979994815,,,,,,,,,,,,,,,,143.10741469997447,143.12295979994815,143.82253459992353,143.82253459992353,144.32218689995352,144.30604669998866,144.3066501999274,144.32218689995352,144.4721229999559,144.67192529991735,144.67192529991735,144.80664429999888,space,1,0.12767129996791482,None,144.8115739999339,145.3212147000013,146.32062339992262,146.3045324999839,,,,,,,,,,,,,,,,,006,001,2025-04-30_00h39.00.775,Cued GoNogo Task,2024.2.4,60.14979708892638,2025-04-30 00h39.07.906289 +0200,
block/CondBlock1.xlsx,You are about to start a block of type 1 trials.,30,30,0,Go,Go,0.23,0.2,0.05,space,green,vertical,space,2.5573424000758678,None,space,1,0.12741030007600784,None,,,,0,0,0,0,0,30,30,30,146.32062339992262,,,,,,,,,,,,,,,,146.30486129992642,146.32062339992262,147.01974019990303,147.01974019990303,147.5195932999486,147.50337149994448,147.50398499995936,147.5195932999486,147.75265029992443,147.93581349996384,147.93581349996384,148.07040629989933,space,1,0.12741030007600784,None,148.07090439996682,148.58524469996337,149.5843907999806,149.5689463999588,,,,,,,,,,,,,,,,,006,001,2025-04-30_00h39.00.775,Cued GoNogo Task,2024.2.4,60.14979708892638,2025-04-30 00h39.07.906289 +0200,
block/CondBlock1.xlsx,You are about to start a block of type 1 trials.,31,31,0,Go,Go,0.28,0.2,0.05,space,green,vertical,space,2.5573424000758678,None,space,1,0.15017560007981956,None,,,,0,0,0,0,0,31,31,31,149.5843907999806,,,,,,,,,,,,,,,,149.56936369999312,149.5843907999806,150.2839246999938,150.2839246999938,150.78353369992692,150.76748959999532,150.76817399996798,150.78353369992692,151.066596699995,151.24980599991977,151.24980599991977,151.40210269996896,space,1,0.15017560007981956,None,151.40592459996697,151.91595029993914,152.91500669997185,152.8988842999097,,,,,,,,,,,,,,,,,006,001,2025-04-30_00h39.00.775,Cued GoNogo Task,2024.2.4,60.14979708892638,2025-04-30 00h39.07.906289 +0200,
block/CondBlock1.xlsx,You are about to start a block of type 1 trials.,32,32,0,Go,Go,0.19,0.2,0.05,space,green,vertical,space,2.5573424000758678,None,space,1,0.0627955999225378,None,,,,0,0,0,0,0,32,32,32,152.91500669997185,,,,,,,,,,,,,,,,152.89912729989737,152.91500669997185,153.6144257999258,153.6144257999258,154.11410799995065,154.09798829990905,154.09859199996572,154.11410799995065,154.31382069992833,154.4972046999028,154.4972046999028,154.5647883999627,space,1,0.0627955999225378,None,154.5682278999593,155.08010589994956,156.07910439989064,156.0633009999292,,,,,,,,,,,,,,,,,006,001,2025-04-30_00h39.00.775,Cued GoNogo Task,2024.2.4,60.14979708892638,2025-04-30 00h39.07.906289 +0200,
block/CondBlock1.xlsx,You are about to start a block of type 1 trials.,33,33,0,Go,Go,0.12,0.2,0.05,space,green,vertical,space,2.5573424000758678,None,space,1,0.14891119999811053,None,,,,0,0,0,0,0,33,33,33,156.07910439989064,,,,,,,,,,,,,,,,156.06364449998364,156.07910439989064,156.7785475999117,156.7785475999117,157.27822799992282,157.26234009990003,157.26310569990892,157.27822799992282,157.41131879994646,157.5944777999539,157.5944777999539,157.74644409993198,space,1,0.14891119999811053,None,157.75121379992925,158.26055379991885,159.25979129993357,159.2442893999396,,,,,,,,,,,,,,,,,006,001,2025-04-30_00h39.00.775,Cued GoNogo Task,2024.2.4,60.14979708892638,2025-04-30 00h39.07.906289 +0200,
block/CondBlock1.xlsx,You are about to start a block of type 1 trials.,34,34,0,Go,Go,0.18,0.2,0.05,space,blue,vertical,space,2.5573424000758678,None,space,1,0.12589679996017367,None,,,,0,0,0,0,0,34,34,34,159.25979129993357,,,,,,,,,,,,,,,,159.24471069988795,159.25979129993357,159.9591328999959,159.9591328999959,160.45881339989137,160.44317289988976,160.44391229993198,160.45881339989137,160.64213999989443,160.84205320000183,160.84205320000183,160.9763668999076,space,1,0.12589679996017367,None,160.9801931999391,161.49132169992663,162.4904821999371,162.47472619998734,,,,,,,,,,,,,,,,,006,001,2025-04-30_00h39.00.775,Cued GoNogo Task,2024.2.4,60.14979708892638,2025-04-30 00h39.07.906289 +0200,
block/CondBlock1.xlsx,You are about to start a block of type 1 trials.,35,35,0,Go,Go,0.21,0.2,0.05,space,blue,vertical,space,2.5573424000758678,None,space,1,0.167164699989371,None,,,,0,0,0,0,0,35,35,35,162.4904821999371,,,,,,,,,,,,,,,,162.47504879999906,162.4904821999371,163.18978379992768,163.18978379992768,163.68937609996647,163.6740060999291,163.6746761999093,163.68937609996647,163.90589649998583,164.0891270999564,164.0891270999564,164.27339049999136,space,1,0.167164699989371,None,164.27704009995796,164.7884950999869,165.78777009993792,165.77185059990734,,,,,,,,,,,,,,,,,006,001,2025-04-30_00h39.00.775,Cued GoNogo Task,2024.2.4,60.14979708892638,2025-04-30 00h39.07.906289 +0200,
block/CondBlock1.xlsx,You are about to start a block of type 1 trials.,36,36,0,Go,Go,0.2,0.2,0.05,space,green,vertical,space,2.5573424000758678,None,space,1,0.1259301999816671,None,,,,0,0,0,0,0,36,36,36,165.78777009993792,,,,,,,,,,,,,,,,165.7721016999567,165.78777009993792,166.48721279995516,166.48721279995516,166.98672169994097,166.9711170999799,166.9719211999327,166.98672169994097,167.1867462999653,167.38659249991179,167.38659249991179,167.5207865999546,space,1,0.1259301999816671,None,167.52439469995443,168.03607559995726,169.03523029992357,169.0191495999461,,,,,,,,,,,,,,,,,006,001,2025-04-30_00h39.00.775,Cued GoNogo Task,2024.2.4,60.14979708892638,2025-04-30 00h39.07.906289 +0200,
block/CondBlock1.xlsx,You are about to start a block of type 1 trials.,37,37,0,Go,Go,0.45,0.05,0.2,space,blue,horizontal,space,2.5573424000758678,None,space,1,0.10903580009471625,None,,,,0,0,0,0,0,37,37,37,169.03523029992357,,,,,,,,,,,,,,,,169.01944239996374,169.03523029992357,169.7346248999238,169.7346248999238,170.23417949990835,170.21836299996357,170.21911379997618,170.23417949990835,170.6838992999401,170.8834517999785,170.8834517999785,171.0014097999083,space,1,0.10903580009471625,None,171.00588979991153,171.51645879994612,172.51541249989532,172.49993369996082,,,,,,,,,,,,,,,,,006,001,2025-04-30_00h39.00.775,Cued GoNogo Task,2024.2.4,60.14979708892638,2025-04-30 00h39.07.906289 +0200,
block/CondBlock1.xlsx,You are about to start a block of type 1 trials.,38,38,0,Go,Go,0.13,0.05,0.2,space,blue,horizontal,space,2.5573424000758678,None,space,1,0.1928063000086695,None,,,,0,0,0,0,0,38,38,38,172.51541249989532,,,,,,,,,,,,,,,,172.50021759991068,172.51541249989532,173.2149805999361,173.2149805999361,173.71453499991912,173.69902229995932,173.6999581999844,173.71453499991912,173.84782479994465,174.03094499988947,174.03094499988947,174.23195869999472,space,1,0.1928063000086695,None,174.2356835999526,174.7471632999368,175.74621809995733,175.7305165999569,,,,,,,,,,,,,,,,,006,001,2025-04-30_00h39.00.775,Cued GoNogo Task,2024.2.4,60.14979708892638,2025-04-30 00h39.07.906289 +0200,
block/CondBlock1.xlsx,You are about to start a block of type 1 trials.,39,39,0,Go,Go,0.46,0.2,0.05,space,blue,vertical,space,2.5573424000758678,None,space,1,0.2369147000135854,None,,,,0,0,0,0,0,39,39,39,175.74621809995733,,,,,,,,,,,,,,,,175.7308391999686,175.74621809995733,176.4457483999431,176.4457483999431,176.94526609999593,176.92920709995087,176.92957529996056,176.94526609999593,177.41158089996316,177.5947356999386,177.5947356999386,177.8457250999054,space,1,0.2369147000135854,None,177.8494936999632,178.36076249997132,179.36020529991947,179.34453169989865,,,,,,,,,,,,,,,,,006,001,2025-04-30_00h39.00.775,Cued GoNogo Task,2024.2.4,60.14979708892638,2025-04-30 00h39.07.906289 +0200,
block/CondBlock1.xlsx,You are about to start a block of type 1 trials.,40,40,0,Go,Go,0.29,0.2,0.05,space,blue,vertical,space,2.5573424000758678,None,space,1,0.24603480007499456,None,,,,0,0,0,0,0,40,40,40,179.36020529991947,,,,,,,,,,,,,,,,179.3450570999412,179.36020529991947,180.05942979990505,180.05942979990505,180.55911569995806,180.54325819993392,180.54403929994442,180.55911569995806,180.85860879998654,181.042057499988,181.042057499988,181.29338979988825,space,1,0.24603480007499456,None,181.2977129999781,181.80764309992082,182.80733119999059,182.7912253999384,,,,,,,,,,,,,,,,,006,001,2025-04-30_00h39.00.775,Cued GoNogo Task,2024.2.4,60.14979708892638,2025-04-30 00h39.07.906289 +0200,
block/CondBlock1.xlsx,You are about to start a block of type 1 trials.,41,41,0,Go,Go,0.22,0.2,0.05,space,blue,vertical,space,2.5573424000758678,None,space,1,0.2498460999922827,None,,,,0,0,0,0,0,41,41,41,182.80733119999059,,,,,,,,,,,,,,,,182.79150079993997,182.80733119999059,183.5068191998871,183.5068191998871,184.00604239990935,183.99044199998025,183.99112679995596,184.00604239990935,184.23919059999753,184.42250509990845,184.42250509990845,184.67535029991996,space,1,0.2498460999922827,None,184.67916139995214,185.18852440000046,186.1876510999864,186.17160039988812,,,,,,,,,,,,,,,,,006,001,2025-04-30_00h39.00.775,Cued GoNogo Task,2024.2.4,60.14979708892638,2025-04-30 00h39.07.906289 +0200,
block/CondBlock1.xlsx,You are about to start a block of type 1 trials.,42,42,0,Go,Go,0.49,0.2,0.05,space,blue,vertical,space,2.5573424000758678,None,space,1,0.15382479992695153,None,,,,0,0,0,0,0,42,42,42,186.1876510999864,,,,,,,,,,,,,,,,186.17186259990558,186.1876510999864,186.88706290000118,186.88706290000118,187.38668489991687,187.37099199998192,187.37166299996898,187.38668489991687,187.88625589990988,188.06943419994786,188.06943419994786,188.2370509998873,space,1,0.15382479992695153,None,188.24109839997254,188.75218189996667,189.75136669992935,189.73550729989074,,,,,,,,,,,,,,,,,006,001,2025-04-30_00h39.00.775,Cued GoNogo Task,2024.2.4,60.14979708892638,2025-04-30 00h39.07.906289 +0200,
block/CondBlock1.xlsx,You are about to start a block of type 1 trials.,43,43,0,Go,Go,0.2,0.2,0.05,space,blue,vertical,space,2.5573424000758678,None,space,1,0.2100322999758646,None,,,,0,0,0,0,0,43,43,43,189.75136669992935,,,,,,,,,,,,,,,,189.73578899994027,189.75136669992935,190.45089699991513,190.45089699991513,190.95053939998616,190.9345887999516,190.9354667000007,190.95053939998616,191.15035059989896,191.3501182999462,191.3501182999462,191.56799059989862,space,1,0.2100322999758646,None,191.573886499973,192.0828259999398,193.0820593999233,193.06642289995216,,,,,,,,,,,,,,,,,006,001,2025-04-30_00h39.00.775,Cued GoNogo Task,2024.2.4,60.14979708892638,2025-04-30 00h39.07.906289 +0200,
block/CondBlock1.xlsx,You are about to start a block of type 1 trials.,44,44,0,Go,Go,0.3,0.05,0.2,space,blue,horizontal,space,2.5573424000758678,None,space,1,0.22740239999257028,None,,,,0,0,0,0,0,44,44,44,193.0820593999233,,,,,,,,,,,,,,,,193.06679969991092,193.0820593999233,193.78145219990984,193.78145219990984,194.28101799997967,194.26524519990198,194.26592339994386,194.28101799997967,194.5806992999278,194.78064149990678,194.78064149990678,195.0148699999554,space,1,0.22740239999257028,None,195.0190517998999,195.5299022999825,196.52915929991286,196.51350879995152,,,,,,,,,,,,,,,,,006,001,2025-04-30_00h39.00.775,Cued GoNogo Task,2024.2.4,60.14979708892638,2025-04-30 00h39.07.906289 +0200,
block/CondBlock1.xlsx,You are about to start a block of type 1 trials.,45,45,0,NoGo,NoGo,0.21,0.05,0.2,none,green,horizontal,space,2.5573424000758678,None,space,0,0.328093699994497,None,,,,0,0,0,0,0,45,45,45,196.52915929991286,,,,,,,,,,,,,,,,196.514000199968,196.52915929991286,197.22854989999905,197.22854989999905,197.72810709988698,197.7126653000014,197.7135774999624,197.72810709988698,197.94472969998606,198.12778909993358,198.12778909993358,198.4623164999066,space,0,0.328093699994497,None,198.46773069992196,198.9773576000007,199.97631889989134,199.96052639989648,,,,,,,,,,,,,,,,,006,001,2025-04-30_00h39.00.775,Cued GoNogo Task,2024.2.4,60.14979708892638,2025-04-30 00h39.07.906289 +0200,
block/CondBlock1.xlsx,You are about to start a block of type 1 trials.,46,46,0,NoGo,NoGo,0.45,0.05,0.2,none,blue,horizontal,space,2.5573424000758678,None,None,1,,,,,,0,0,0,0,0,46,46,46,199.97631889989134,,,,,,,,,,,,,,,,199.9608365999302,199.97631889989134,200.67585329990834,200.67585329990834,201.17536409990862,201.15933079994284,201.15989979996812,201.17536409990862,201.62504769989755,201.82476549991407,201.82476549991407,202.3086966999108,None,1,,,202.31200499995612,202.82393009995576,203.82308689993806,203.8076873999089,202.32434399996419,202.32434399996419,,,,,,,,,,,,,,,006,001,2025-04-30_00h39.00.775,Cued GoNogo Task,2024.2.4,60.14979708892638,2025-04-30 00h39.07.906289 +0200,
block/CondBlock1.xlsx,You are about to start a block of type 1 trials.,47,47,0,Go,Go,0.24,0.05,0.2,space,green,horizontal,space,2.5573424000758678,None,space,1,0.16108660004101694,None,,,,0,0,0,0,0,47,47,47,203.82308689993806,,,,,,,,,,,,,,,,203.80808419990353,203.82308689993806,204.52259680000134,204.52259680000134,205.0220731999725,205.00636999995913,205.00712649989873,205.0220731999725,205.27209249988664,205.45523959991988,205.45523959991988,205.62302289996296,space,1,0.16108660004101694,None,205.62784329999704,206.13788959989324,207.13723169988953,207.1212344999658,,,,,,,,,,,,,,,,,006,001,2025-04-30_00h39.00.775,Cued GoNogo Task,2024.2.4,60.14979708892638,2025-04-30 00h39.07.906289 +0200,
block/CondBlock1.xlsx,You are about to start a block of type 1 trials.,48,48,0,NoGo,NoGo,0.15,0.2,0.05,none,blue,vertical,space,2.5573424000758678,None,space,0,0.1697422000579536,None,,,,0,0,0,0,0,48,48,48,207.13723169988953,,,,,,,,,,,,,,,,207.12151430000085,207.13723169988953,207.8366921999259,207.8366921999259,208.33624659990892,208.31991489999928,208.32051759993192,208.33624659990892,208.48613829992246,208.68600949994288,208.68600949994288,208.87056969990954,space,0,0.1697422000579536,None,208.87614969990682,209.3854035999393,210.3844726999523,210.36873609991744,,,,,,,,,,,,,,,,,006,001,2025-04-30_00h39.00.775,Cued GoNogo Task,2024.2.4,60.14979708892638,2025-04-30 00h39.07.906289 +0200,
block/CondBlock1.xlsx,You are about to start a block of type 1 trials.,49,49,0,Go,Go,0.12,0.05,0.2,space,blue,horizontal,space,2.5573424000758678,None,space,1,0.23665789992082864,None,,,,0,0,0,0,0,49,49,49,210.3844726999523,,,,,,,,,,,,,,,,210.3690701999003,210.3844726999523,211.08395749994088,211.08395749994088,211.58345999999437,211.56757109996397,211.56811029999517,211.58345999999437,211.7164102999959,211.8995499999728,211.8995499999728,212.15117989992723,space,1,0.23665789992082864,None,212.1554724999005,212.6659832999576,213.66506489994936,213.6492027998902,,,,,,,,,,,,,,,,,006,001,2025-04-30_00h39.00.775,Cued GoNogo Task,2024.2.4,60.14979708892638,2025-04-30 00h39.07.906289 +0200,
block/CondBlock1.xlsx,You are about to start a block of type 1 trials.,50,50,0,Go,Go,0.22,0.2,0.05,space,green,vertical,space,2.5573424000758678,None,space,1,0.21562530007213354,None,,,,0,0,0,0,0,50,50,50,213.66506489994936,,,,,,,,,,,,,,,,213.64950389997102,213.66506489994936,214.36435969988815,214.36435969988815,214.86399759992491,214.8480000999989,214.84859869990032,214.86399759992491,215.09725169988815,215.28038149990607,215.28038149990607,215.49899129988626,space,1,0.21562530007213354,None,215.50176379992627,216.0130464999238,217.0122534999391,216.99629169993568,,,,,,,,,,,,,,,,,006,001,2025-04-30_00h39.00.775,Cued GoNogo Task,2024.2.4,60.14979708892638,2025-04-30 00h39.07.906289 +0200,
block/CondBlock1.xlsx,You are about to start a block of type 1 trials.,51,51,0,Go,Go,0.28,0.05,0.2,space,green,horizontal,space,2.5573424000758678,None,space,1,0.2175083999754861,None,,,,0,0,0,0,0,51,51,51,217.0122534999391,,,,,,,,,,,,,,,,216.99652049993165,217.0122534999391,217.71155099989846,217.71155099989846,218.21120719995815,218.19541229994502,218.19600359990727,218.21120719995815,218.4944192999974,218.6942317999201,218.6942317999201,218.92830869997852,space,1,0.2175083999754861,None,218.9315538998926,219.4436092999531,220.44280569988769,220.42693759989925,,,,,,,,,,,,,,,,,006,001,2025-04-30_00h39.00.775,Cued GoNogo Task,2024.2.4,60.14979708892638,2025-04-30 00h39.07.906289 +0200,
block/CondBlock1.xlsx,You are about to start a block of type 1 trials.,52,52,0,Go,Go,0.23,0.2,0.05,space,green,vertical,space,2.5573424000758678,None,space,1,0.17303379997611046,None,,,,0,0,0,0,0,52,52,52,220.44280569988769,,,,,,,,,,,,,,,,220.42726559995208,220.44280569988769,221.14233949990012,221.14233949990012,221.64174649992492,221.62610019999556,221.6269908999093,221.64174649992492,221.87500399991404,222.05821129994,222.05821129994,222.24198629998136,space,1,0.17303379997611046,None,222.24546199990436,222.75752769992687,223.75697029998992,223.74081369990017,,,,,,,,,,,,,,,,,006,001,2025-04-30_00h39.00.775,Cued GoNogo Task,2024.2.4,60.14979708892638,2025-04-30 00h39.07.906289 +0200,
block/CondBlock1.xlsx,You are about to start a block of type 1 trials.,53,53,0,Go,Go,0.22,0.05,0.2,space,green,horizontal,space,2.5573424000758678,None,space,1,0.15555749996565282,None,,,,0,0,0,0,0,53,53,53,223.75697029998992,,,,,,,,,,,,,,,,223.74108589999378,223.75697029998992,224.45619669998996,224.45619669998996,224.95577339990996,224.93982869992033,224.94065779994708,224.95577339990996,225.18885719997343,225.3721084999852,225.3721084999852,225.53944069996942,space,1,0.15555749996565282,None,225.5431166999042,226.05481029988732,227.05399079993367,227.0381969999289,,,,,,,,,,,,,,,,,006,001,2025-04-30_00h39.00.775,Cued GoNogo Task,2024.2.4,60.14979708892638,2025-04-30 00h39.07.906289 +0200,
block/CondBlock1.xlsx,You are about to start a block of type 1 trials.,54,54,0,NoGo,NoGo,0.14,0.05,0.2,none,green,horizontal,space,2.5573424000758678,None,None,1,,,,,,0,0,0,0,0,54,54,54,227.05399079993367,,,,,,,,,,,,,,,,227.0385183999315,227.05399079993367,227.7534668999724,227.7534668999724,228.25312109990045,228.23794399993494,228.23876679991372,228.25312109990045,228.40287159988657,228.58632749994285,228.58632749994285,229.07025339989923,None,1,,,229.07368659996428,229.58534439990763,230.5844013999449,230.56879539997317,229.08581049996428,229.08581049996428,,,,,,,,,,,,,,,006,001,2025-04-30_00h39.00.775,Cued GoNogo Task,2024.2.4,60.14979708892638,2025-04-30 00h39.07.906289 +0200,
block/CondBlock1.xlsx,You are about to start a block of type 1 trials.,55,55,0,Go,Go,0.15,0.2,0.05,space,blue,vertical,space,2.5573424000758678,None,space,1,0.10692020005080849,None,,,,0,0,0,0,0,55,55,55,230.5844013999449,,,,,,,,,,,,,,,,230.56909599993378,230.5844013999449,231.28375089995097,231.28375089995097,231.78374559991062,231.76779789989814,231.76849509996828,231.78374559991062,231.93340399989393,232.13301589991897,232.13301589991897,232.25107249990106,space,1,0.10692020005080849,None,232.25468909996562,232.76623319997452,233.7652055999497,233.74994009989314,,,,,,,,,,,,,,,,,006,001,2025-04-30_00h39.00.775,Cued GoNogo Task,2024.2.4,60.14979708892638,2025-04-30 00h39.07.906289 +0200,
block/CondBlock1.xlsx,You are about to start a block of type 1 trials.,56,56,0,Go,Go,0.47,0.2,0.05,space,blue,vertical,space,2.5573424000758678,None,space,1,0.22550209995824844,None,,,,0,0,0,0,0,56,56,56,233.7652055999497,,,,,,,,,,,,,,,,233.75035679992288,233.7652055999497,234.4647458998952,234.4647458998952,234.96419599989895,234.9479545999784,234.94843249989208,234.96419599989895,235.44715819996782,235.63038579991553,235.63038579991553,235.86503629991785,space,1,0.22550209995824844,None,235.86937959992792,236.37981679989025,237.37884589994792,237.36299229995348,,,,,,,,,,,,,,,,,006,001,2025-04-30_00h39.00.775,Cued GoNogo Task,2024.2.4,60.14979708892638,2025-04-30 00h39.07.906289 +0200,
block/CondBlock1.xlsx,You are about to start a block of type 1 trials.,57,57,0,NoGo,NoGo,0.42,0.2,0.05,none,green,vertical,space,2.5573424000758678,None,None,1,,,,,,0,0,0,0,0,57,57,57,237.37884589994792,,,,,,,,,,,,,,,,237.3632687999634,237.37884589994792,238.0782253999496,238.0782253999496,238.57799659995362,238.56244059989695,238.56346539990045,238.57799659995362,239.01098489994183,239.19401139998809,239.19401139998809,239.6778393998975,None,1,,,239.6805233999621,240.19321999989916,241.19225649989676,241.17660429992247,239.69359189993702,239.69359189993702,,,,,,,,,,,,,,,006,001,2025-04-30_00h39.00.775,Cued GoNogo Task,2024.2.4,60.14979708892638,2025-04-30 00h39.07.906289 +0200,
block/CondBlock1.xlsx,You are about to start a block of type 1 trials.,58,58,0,Go,Go,0.22,0.05,0.2,space,green,horizontal,space,2.5573424000758678,None,space,1,0.16803259996231645,None,,,,0,0,0,0,0,58,58,58,241.19225649989676,,,,,,,,,,,,,,,,241.1769604999572,241.19225649989676,241.89177789993118,241.89177789993118,242.39125349989627,242.37570330000017,242.3763683999423,242.39125349989627,242.62456339993514,242.80779209989123,242.80779209989123,242.9922399999341,space,1,0.16803259996231645,None,242.99653939995915,243.50713889999315,244.5063969999319,244.49077139992733,,,,,,,,,,,,,,,,,006,001,2025-04-30_00h39.00.775,Cued GoNogo Task,2024.2.4,60.14979708892638,2025-04-30 00h39.07.906289 +0200,
block/CondBlock1.xlsx,You are about to start a block of type 1 trials.,59,59,0,Go,Go,0.3,0.2,0.05,space,blue,vertical,space,2.5573424000758678,None,space,1,0.30015129991807044,None,,,,0,0,0,0,0,59,59,59,244.5063969999319,,,,,,,,,,,,,,,,244.49106789997313,244.5063969999319,245.20559359993786,245.20559359993786,245.70537419989705,245.6894468999235,245.6901689999504,245.70537419989705,246.00509209989104,246.20500109996647,246.20500109996647,246.50799159996677,space,1,0.30015129991807044,None,246.51271879998967,247.02090799994767,248.020250499947,248.00409169995692,,,,,,,,,,,,,,,,,006,001,2025-04-30_00h39.00.775,Cued GoNogo Task,2024.2.4,60.14979708892638,2025-04-30 00h39.07.906289 +0200,
block/CondBlock1.xlsx,You are about to start a block of type 1 trials.,60,60,0,NoGo,NoGo,0.24,0.2,0.05,none,blue,vertical,space,2.5573424000758678,None,None,1,,,,,,0,0,0,0,0,60,60,60,248.020250499947,,,,,,,,,,,,,,,,248.00448519992642,248.020250499947,248.71953579992987,248.71953579992987,249.21919249999337,249.20320769993123,249.20358429988846,249.21919249999337,249.46905109996442,249.65207829989959,249.65207829989959,250.13565959990956,None,1,,,250.13821479992475,250.6347430999158,251.63368939992506,251.61834859999362,250.1517139999196,250.1517139999196,,,,,,,,,,,,,,,006,001,2025-04-30_00h39.00.775,Cued GoNogo Task,2024.2.4,60.14979708892638,2025-04-30 00h39.07.906289 +0200,
block/CondBlock1.xlsx,You are about to start a block of type 1 trials.,61,61,0,NoGo,NoGo,0.1,0.2,0.05,none,green,vertical,space,2.5573424000758678,None,None,1,,,,,,0,0,0,0,0,61,61,61,251.63368939992506,,,,,,,,,,,,,,,,251.61872969998512,251.65047529991716,252.349817099981,252.349817099981,252.84960219997447,252.83362359995954,252.83440629998222,252.84960219997447,252.94939989992417,253.14921319996938,253.14921319996938,253.63323769997805,None,1,,,253.63383759988938,254.1484485999681,255.14783019991592,255.1314590999391,253.64878039993346,253.64878039993346,,,,,,,,,,,,,,,006,001,2025-04-30_00h39.00.775,Cued GoNogo Task,2024.2.4,60.14979708892638,2025-04-30 00h39.07.906289 +0200,
block/CondBlock1.xlsx,You are about to start a block of type 1 trials.,62,62,0,Go,Go,0.45,0.05,0.2,space,blue,horizontal,space,2.5573424000758678,None,space,1,0.14762129995506257,None,,,,0,0,0,0,0,62,62,62,255.14783019991592,,,,,,,,,,,,,,,,255.1317283998942,255.14783019991592,255.84717259998433,255.84717259998433,256.34672359994147,256.330732399947,256.33132319990546,256.34672359994147,256.79627459996846,256.99610089999624,256.99610089999624,257.14729100000113,space,1,0.14762129995506257,None,257.15111829992384,257.6622639999259,258.6612154999748,258.64524599991273,,,,,,,,,,,,,,,,,006,001,2025-04-30_00h39.00.775,Cued GoNogo Task,2024.2.4,60.14979708892638,2025-04-30 00h39.07.906289 +0200,
block/CondBlock1.xlsx,You are about to start a block of type 1 trials.,63,63,0,Go,Go,0.1,0.05,0.2,space,green,horizontal,space,2.5573424000758678,None,space,1,0.20069540000986308,None,,,,0,0,0,0,0,63,63,63,258.6612154999748,,,,,,,,,,,,,,,,258.6455102999462,258.6612154999748,259.3609461999731,259.3609461999731,259.86058539990336,259.8443853999488,259.8450432999525,259.86058539990336,259.96035909990314,260.160167099908,260.160167099908,260.3780648999382,space,1,0.20069540000986308,None,260.3819423998939,260.8928189999424,261.89214589993935,261.87650329992175,,,,,,,,,,,,,,,,,006,001,2025-04-30_00h39.00.775,Cued GoNogo Task,2024.2.4,60.14979708892638,2025-04-30 00h39.07.906289 +0200,
block/CondBlock1.xlsx,You are about to start a block of type 1 trials.,64,64,0,Go,Go,0.19,0.05,0.2,space,blue,horizontal,space,2.5573424000758678,None,space,1,0.3416480999439955,None,,,,0,0,0,0,0,64,64,64,261.89214589993935,,,,,,,,,,,,,,,,261.8768329999875,261.89214589993935,262.59153259999584,262.59153259999584,263.0910886999918,263.07500229997095,263.07570859999396,263.0910886999918,263.2908378998982,263.4740900999168,263.4740900999168,263.82513599994127,space,1,0.3416480999439955,None,263.83028569992166,264.34003139997367,265.3390695999842,265.3231325999368,,,,,,,,,,,,,,,,,006,001,2025-04-30_00h39.00.775,Cued GoNogo Task,2024.2.4,60.14979708892638,2025-04-30 00h39.07.906289 +0200,
block/CondBlock1.xlsx,You are about to start a block of type 1 trials.,65,65,0,Go,Go,0.21,0.2,0.05,space,blue,vertical,space,2.5573424000758678,None,space,1,0.1265939000295475,None,,,,0,0,0,0,0,65,65,65,265.3390695999842,,,,,,,,,,,,,,,,265.3233402998885,265.3390695999842,266.03865509992465,266.03865509992465,266.53802589990664,266.52224869991187,266.5228327999357,266.53802589990664,266.7547641999554,266.9379116999917,266.9379116999917,267.07230769994203,space,1,0.1265939000295475,None,267.07696629990824,267.58733259991277,268.5864207999548,268.57077419990674,,,,,,,,,,,,,,,,,006,001,2025-04-30_00h39.00.775,Cued GoNogo Task,2024.2.4,60.14979708892638,2025-04-30 00h39.07.906289 +0200,
block/CondBlock1.xlsx,You are about to start a block of type 1 trials.,66,66,0,Go,Go,0.18,0.05,0.2,space,blue,horizontal,space,2.5573424000758678,None,space,1,0.12015769991558045,None,,,,0,0,0,0,0,66,66,66,268.5864207999548,,,,,,,,,,,,,,,,268.5710857999511,268.5864207999548,269.2859152999008,269.2859152999008,269.7856459999457,269.7700038999319,269.7707725999644,269.7856459999457,269.9687636999879,270.15202669997234,270.15202669997234,270.2867869999027,space,1,0.12015769991558045,None,270.29067859996576,270.80145119992085,271.8006673998898,271.78459830000065,,,,,,,,,,,,,,,,,006,001,2025-04-30_00h39.00.775,Cued GoNogo Task,2024.2.4,60.14979708892638,2025-04-30 00h39.07.906289 +0200,
block/CondBlock1.xlsx,You are about to start a block of type 1 trials.,67,67,0,Go,Go,0.29,0.2,0.05,space,green,vertical,space,2.5573424000758678,None,space,1,0.11756220005918294,None,,,,0,0,0,0,0,67,67,67,271.8006673998898,,,,,,,,,,,,,,,,271.7849148999667,271.8006673998898,272.499856099952,272.499856099952,272.9995440999046,272.98417659988627,272.9847720999969,272.9995440999046,273.2994776999112,273.482403999893,273.482403999893,273.6172303999774,space,1,0.11756220005918294,None,273.6223171999445,274.13190789998043,275.13127939996775,275.1158148999093,,,,,,,,,,,,,,,,,006,001,2025-04-30_00h39.00.775,Cued GoNogo Task,2024.2.4,60.14979708892638,2025-04-30 00h39.07.906289 +0200,
block/CondBlock1.xlsx,You are about to start a block of type 1 trials.,68,68,0,NoGo,NoGo,0.24,0.2,0.05,none,blue,vertical,space,2.5573424000758678,None,space,0,0.140649399952963,None,,,,0,0,0,0,0,68,68,68,275.13127939996775,,,,,,,,,,,,,,,,275.1162335999543,275.13127939996775,275.8305976999691,275.8305976999691,276.3300482999766,276.3141275999369,276.31474479997996,276.3300482999766,276.5800317999674,276.7633388999384,276.7633388999384,276.914236899931,space,0,0.140649399952963,None,276.91849179996643,277.4293598999502,278.42843309999444,278.41267949994653,,,,,,,,,,,,,,,,,006,001,2025-04-30_00h39.00.775,Cued GoNogo Task,2024.2.4,60.14979708892638,2025-04-30 00h39.07.906289 +0200,
block/CondBlock1.xlsx,You are about to start a block of type 1 trials.,69,69,0,Go,Go,0.27,0.05,0.2,space,green,horizontal,space,2.5573424000758678,None,space,1,0.1061786999925971,None,,,,0,0,0,0,0,69,69,69,278.42843309999444,,,,,,,,,,,,,,,,278.4129134999821,278.42843309999444,279.12799869989976,279.12799869989976,279.62739879998844,279.6121529999655,279.6131094999146,279.62739879998844,279.91048189997673,280.09373719990253,280.09373719990253,280.21187889995053,space,1,0.1061786999925971,None,280.2169060999295,280.7266320999479,281.72583299991675,281.7101226999657,,,,,,,,,,,,,,,,,006,001,2025-04-30_00h39.00.775,Cued GoNogo Task,2024.2.4,60.14979708892638,2025-04-30 00h39.07.906289 +0200,
block/CondBlock1.xlsx,You are about to start a block of type 1 trials.,70,70,0,Go,Go,0.25,0.2,0.05,space,green,vertical,space,2.5573424000758678,None,space,1,0.12916230002883822,None,,,,0,0,0,0,0,70,70,70,281.72583299991675,,,,,,,,,,,,,,,,281.710412299959,281.72583299991675,282.42506209993735,282.42506209993735,282.9248389999848,282.9089252999984,282.9094539999496,282.9248389999848,283.1745063998969,283.37429349997547,283.37429349997547,283.5089997999603,space,1,0.12916230002883822,None,283.513549999916,284.02379669994116,285.02292719995603,285.00703129998874,,,,,,,,,,,,,,,,,006,001,2025-04-30_00h39.00.775,Cued GoNogo Task,2024.2.4,60.14979708892638,2025-04-30 00h39.07.906289 +0200,
block/CondBlock1.xlsx,You are about to start a block of type 1 trials.,71,71,0,Go,Go,0.28,0.05,0.2,space,green,horizontal,space,2.5573424000758678,None,space,1,0.1367810999508947,None,,,,0,0,0,0,0,71,71,71,285.02292719995603,,,,,,,,,,,,,,,,285.00730549998116,285.02292719995603,285.7224843999138,285.7224843999138,286.22191719990224,286.20636569999624,286.20717519999016,286.22191719990224,286.5049746999284,286.68838339997455,286.68838339997455,286.8391790998867,space,1,0.1367810999508947,None,286.84328749997076,287.3552176998928,,288.3537866999395,,,,,,,,,,,,,,,,,006,001,2025-04-30_00h39.00.775,Cued GoNogo Task,2024.2.4,60.14979708892638,2025-04-30 00h39.07.906289 +0200,
block/CondBlock1.xlsx,You are about to start a block of type 1 trials.,72,72,0,Go,Go,0.14,0.05,0.2,space,blue,horizontal,space,2.5573424000758678,None,space,1,0.10690090002026409,None,,,,0,0,0,0,0,72,72,72,288.37020689994097,,,,,,,,,,,,,,,,288.354076199932,288.37020689994097,289.0532629999798,289.0697980999248,289.55267699994147,289.5370234999573,289.5378106998978,289.55267699994147,289.702561999904,289.8856636999408,289.8856636999408,290.00370899995323,space,1,0.10690090002026409,None,290.00878799997736,290.51856009999756,291.5177941999864,291.5023118999088,,,,,,,,,,,,,,,,,006,001,2025-04-30_00h39.00.775,Cued GoNogo Task,2024.2.4,60.14979708892638,2025-04-30 00h39.07.906289 +0200,
block/CondBlock1.xlsx,You are about to start a block of type 1 trials.,73,73,0,Go,Go,0.11,0.05,0.2,space,blue,horizontal,space,2.5573424000758678,None,space,1,0.15939769998658448,None,,,,0,0,0,0,0,73,73,73,291.5177941999864,,,,,,,,,,,,,,,,291.50274669995997,291.5177941999864,292.21702749992255,292.21702749992255,292.7167210999178,292.7006962999003,292.70131399994716,292.7167210999178,292.8330873999512,293.0166935999878,293.0166935999878,293.1843012999743,space,1,0.15939769998658448,None,293.1888564999681,293.69953220000025,294.69838859990705,294.68278869998176,,,,,,,,,,,,,,,,,006,001,2025-04-30_00h39.00.775,Cued GoNogo Task,2024.2.4,60.14979708892638,2025-04-30 00h39.07.906289 +0200,
block/CondBlock1.xlsx,You are about to start a block of type 1 trials.,74,74,0,Go,Go,0.22,0.2,0.05,space,blue,vertical,space,2.5573424000758678,None,space,1,0.18268179998267442,None,,,,0,0,0,0,0,74,74,74,294.69838859990705,,,,,,,,,,,,,,,,294.6830604999559,294.69838859990705,295.39786219992675,295.39786219992675,295.89755409990903,295.88143589999527,295.8821211999748,295.89755409990903,296.1306161999237,296.31367289996706,296.31367289996706,296.49922779994085,space,1,0.18268179998267442,None,296.5028211999452,297.0132219999796,298.01236719998997,297.9960885999026,,,,,,,,,,,,,,,,,006,001,2025-04-30_00h39.00.775,Cued GoNogo Task,2024.2.4,60.14979708892638,2025-04-30 00h39.07.906289 +0200,
block/CondBlock1.xlsx,You are about to start a block of type 1 trials.,75,75,0,Go,Go,0.26,0.05,0.2,space,blue,horizontal,space,2.5573424000758678,None,space,1,0.08411509997677058,None,,,,0,0,0,0,0,75,75,75,298.01236719998997,,,,,,,,,,,,,,,,297.99625659990124,298.01236719998997,298.712303499924,298.712303499924,299.21134199993685,299.195501799928,299.1961502999766,299.21134199993685,299.4778977999231,299.6610824998934,299.6610824998934,299.7628858999815,space,1,0.08411509997677058,None,299.767827799893,300.2770870999666,301.2762375999009,301.2605635999935,,,,,,,,,,,,,,,,,006,001,2025-04-30_00h39.00.775,Cued GoNogo Task,2024.2.4,60.14979708892638,2025-04-30 00h39.07.906289 +0200,
block/CondBlock1.xlsx,You are about to start a block of type 1 trials.,76,76,0,Go,Go,0.14,0.2,0.05,space,green,vertical,space,2.5573424000758678,None,space,1,0.08736420003697276,None,,,,0,0,0,0,0,76,76,76,301.2762375999009,,,,,,,,,,,,,,,,301.26092919998337,301.2762375999009,301.975812699995,301.975812699995,302.47542319993954,302.45944919995964,302.4601566999918,302.47542319993954,302.62525829998776,302.8084327999968,302.8084327999968,302.9096736999927,space,1,0.08736420003697276,None,302.9142647999106,303.42455499991775,304.42375089996494,304.4082506999839,,,,,,,,,,,,,,,,,006,001,2025-04-30_00h39.00.775,Cued GoNogo Task,2024.2.4,60.14979708892638,2025-04-30 00h39.07.906289 +0200,
block/CondBlock1.xlsx,You are about to start a block of type 1 trials.,77,77,0,Go,Go,0.18,0.05,0.2,space,green,horizontal,space,2.5573424000758678,None,space,1,0.21022010000888258,None,,,,0,0,0,0,0,77,77,77,304.42375089996494,,,,,,,,,,,,,,,,304.40869399998337,304.42375089996494,305.1231159999734,305.1231159999734,305.622774999938,305.60696199990343,305.60760929994285,305.622774999938,305.8060449999757,305.9892539998982,305.9892539998982,306.20686809998006,space,1,0.21022010000888258,None,306.21208269998897,306.7219141999958,307.7209925999632,307.7050897999434,,,,,,,,,,,,,,,,,006,001,2025-04-30_00h39.00.775,Cued GoNogo Task,2024.2.4,60.14979708892638,2025-04-30 00h39.07.906289 +0200,
block/CondBlock1.xlsx,You are about to start a block of type 1 trials.,78,78,0,NoGo,NoGo,0.27,0.05,0.2,none,blue,horizontal,space,2.5573424000758678,None,None,1,,,,,,0,0,0,0,0,78,78,78,307.7209925999632,,,,,,,,,,,,,,,,307.7052681999048,307.7209925999632,308.42032429995015,308.42032429995015,308.9200131999096,308.90419239993207,308.9048059999477,308.9200131999096,309.20320139999967,309.3863670999417,309.3863670999417,309.8703452999471,None,1,,,309.87435539998114,310.3857213999145,,311.3848923998885,309.88591139996424,309.88591139996424,,,,,,,,,,,,,,,006,001,2025-04-30_00h39.00.775,Cued GoNogo Task,2024.2.4,60.14979708892638,2025-04-30 00h39.07.906289 +0200,
block/CondBlock1.xlsx,You are about to start a block of type 1 trials.,79,79,0,NoGo,NoGo,0.26,0.2,0.05,none,blue,vertical,space,2.5573424000758678,None,None,1,,,,,,0,0,0,0,0,79,79,79,311.401271599927,,,,,,,,,,,,,,,,311.38523039990105,311.401271599927,312.08435029990505,312.1007562999148,312.58369189989753,312.56798169994727,312.5688793999143,312.58369189989753,312.8502644998953,313.0333362999372,313.0333362999372,313.51682659995276,None,1,,,313.5172135999892,314.0326858999906,,315.03190549998544,313.53280039993115,313.53280039993115,,,,,,,,,,,,,,,006,001,2025-04-30_00h39.00.775,Cued GoNogo Task,2024.2.4,60.14979708892638,2025-04-30 00h39.07.906289 +0200,
block/CondBlock1.xlsx,You are about to start a block of type 1 trials.,80,80,0,Go,Go,0.22,0.2,0.05,space,green,vertical,space,2.5573424000758678,None,space,1,0.09692129993345588,None,,,,0,0,0,0,0,80,80,80,315.04813279991504,,,,,,,,,,,,,,,,315.0323275999399,315.04813279991504,315.731154399924,315.74798149999697,316.2305887999246,316.21510339993984,316.21591109992005,316.2305887999246,316.46382809989154,316.6470971999224,316.6470971999224,316.748016599915,space,1,0.09692129993345588,None,316.75219249993097,317.2632664999692,318.2623494999716,318.24670309992507,,,,,,,,,,,,,,,,,006,001,2025-04-30_00h39.00.775,Cued GoNogo Task,2024.2.4,60.14979708892638,2025-04-30 00h39.07.906289 +0200,
block/CondBlock1.xlsx,You are about to start a block of type 1 trials.,81,81,0,Go,Go,0.5,0.2,0.05,space,green,vertical,space,2.5573424000758678,None,space,1,0.1351958999875933,None,,,,0,0,0,0,0,81,81,81,318.2623494999716,,,,,,,,,,,,,,,,318.2470822999021,318.2623494999716,318.9618166999426,318.9618166999426,319.4612659999402,319.44546709989663,319.4460911999922,319.4612659999402,319.9609927999554,320.1606992998859,320.1606992998859,320.31206669996027,space,1,0.1351958999875933,None,320.3168656999478,320.82699759991374,321.8261554999044,321.8104489999823,,,,,,,,,,,,,,,,,006,001,2025-04-30_00h39.00.775,Cued GoNogo Task,2024.2.4,60.14979708892638,2025-04-30 00h39.07.906289 +0200,
block/CondBlock1.xlsx,You are about to start a block of type 1 trials.,82,82,0,Go,Go,0.43,0.05,0.2,space,green,horizontal,space,2.5573424000758678,None,space,1,0.2943512999918312,None,,,,0,0,0,0,0,82,82,82,321.8261554999044,,,,,,,,,,,,,,,,321.8107533999719,321.8261554999044,322.5255750999786,322.5255750999786,323.02525749988854,323.00950099993497,323.0101686998969,323.02525749988854,323.45801760000177,323.641394999926,323.641394999926,323.94245189998765,space,1,0.2943512999918312,None,323.94669139990583,324.457429699949,325.456330099958,325.4407264998881,,,,,,,,,,,,,,,,,006,001,2025-04-30_00h39.00.775,Cued GoNogo Task,2024.2.4,60.14979708892638,2025-04-30 00h39.07.906289 +0200,
block/CondBlock1.xlsx,You are about to start a block of type 1 trials.,83,83,0,Go,Go,0.25,0.2,0.05,space,green,vertical,space,2.5573424000758678,None,space,1,0.1827478000195697,None,,,,0,0,0,0,0,83,83,83,325.456330099958,,,,,,,,,,,,,,,,325.44108889997005,325.456330099958,326.1560303999577,326.1560303999577,326.6553089999361,326.6395388999954,326.64031909999903,326.6553089999361,326.905485700001,327.1051892999094,327.1051892999094,327.28999169997405,space,1,0.1827478000195697,None,327.2940700999461,327.80447189998813,328.8037893999135,328.78801059990656,,,,,,,,,,,,,,,,,006,001,2025-04-30_00h39.00.775,Cued GoNogo Task,2024.2.4,60.14979708892638,2025-04-30 00h39.07.906289 +0200,
block/CondBlock1.xlsx,You are about to start a block of type 1 trials.,84,84,0,NoGo,NoGo,0.14,0.2,0.05,none,green,vertical,space,2.5573424000758678,None,None,1,,,,,,0,0,0,0,0,84,84,84,328.8037893999135,,,,,,,,,,,,,,,,328.7883879999863,328.8037893999135,329.50305209995713,329.50305209995713,330.00263629993424,329.98737939994317,329.9883432999486,330.00263629993424,330.1524828999536,330.33561749989167,330.33561749989167,330.81956229999196,None,1,,,330.8220397999976,331.33498079993296,332.33420409995597,332.318154699984,330.83530429995153,330.83530429995153,,,,,,,,,,,,,,,006,001,2025-04-30_00h39.00.775,Cued GoNogo Task,2024.2.4,60.14979708892638,2025-04-30 00h39.07.906289 +0200,
block/CondBlock1.xlsx,You are about to start a block of type 1 trials.,85,85,0,Go,Go,0.2,0.05,0.2,space,blue,horizontal,space,2.5573424000758678,None,space,1,0.17145590006839484,None,,,,0,0,0,0,0,85,85,85,332.33420409995597,,,,,,,,,,,,,,,,332.31847669999115,332.33420409995597,333.0338268999476,333.0338268999476,333.53325909993146,333.5171128999209,333.5176747998921,333.53325909993146,333.7330926998984,333.9326858998975,333.9326858998975,334.1172355999006,space,1,0.17145590006839484,None,334.12123719998635,334.63235099997837,335.63136579992715,335.61602719989605,,,,,,,,,,,,,,,,,006,001,2025-04-30_00h39.00.775,Cued GoNogo Task,2024.2.4,60.14979708892638,2025-04-30 00h39.07.906289 +0200,
block/CondBlock1.xlsx,You are about to start a block of type 1 trials.,86,86,0,Go,Go,0.16,0.2,0.05,space,blue,vertical,space,2.5573424000758678,None,space,1,0.15550980006810278,None,,,,0,0,0,0,0,86,86,86,335.63136579992715,,,,,,,,,,,,,,,,335.61647349991836,335.63136579992715,336.330694599892,336.330694599892,336.8304679999128,336.8145070999162,336.81519579992164,336.8304679999128,336.9968628999777,337.18001019989606,337.18001019989606,337.34778419998474,space,1,0.15550980006810278,None,337.3523355999496,337.8626842999365,338.8623371999711,338.846086799982,,,,,,,,,,,,,,,,,006,001,2025-04-30_00h39.00.775,Cued GoNogo Task,2024.2.4,60.14979708892638,2025-04-30 00h39.07.906289 +0200,
block/CondBlock1.xlsx,You are about to start a block of type 1 trials.,87,87,0,Go,Go,0.41,0.2,0.05,space,green,vertical,space,2.5573424000758678,None,space,1,0.16277339996304363,None,,,,0,0,0,0,0,87,87,87,338.8623371999711,,,,,,,,,,,,,,,,338.8463509998983,338.8623371999711,339.5614981999388,339.5614981999388,340.0612213999266,340.0450687999837,340.0456673000008,340.0612213999266,340.4774770999793,340.6606307999464,340.6606307999464,340.82884949992876,space,1,0.16277339996304363,None,340.8329468999291,341.34329939994495,342.3425419999985,342.3266771999188,,,,,,,,,,,,,,,,,006,001,2025-04-30_00h39.00.775,Cued GoNogo Task,2024.2.4,60.14979708892638,2025-04-30 00h39.07.906289 +0200,
block/CondBlock1.xlsx,You are about to start a block of type 1 trials.,88,88,0,NoGo,NoGo,0.15,0.2,0.05,none,green,vertical,space,2.5573424000758678,None,None,1,,,,,,0,0,0,0,0,88,88,88,342.3425419999985,,,,,,,,,,,,,,,,342.3269797998946,342.3425419999985,343.0418414999731,343.0418414999731,343.541613599984,343.5257848999463,343.5269075999968,343.541613599984,343.6913427999243,343.8913232999621,343.8913232999621,344.3752840999514,None,1,,,344.37791909999214,344.8903830999043,345.88960649992805,345.8736116999062,344.3907667999156,344.3907667999156,,,,,,,,,,,,,,,006,001,2025-04-30_00h39.00.775,Cued GoNogo Task,2024.2.4,60.14979708892638,2025-04-30 00h39.07.906289 +0200,
block/CondBlock1.xlsx,You are about to start a block of type 1 trials.,89,89,0,Go,Go,0.24,0.05,0.2,space,blue,horizontal,space,2.5573424000758678,None,space,1,0.13481959991622716,None,,,,0,0,0,0,0,89,89,89,345.88960649992805,,,,,,,,,,,,,,,,345.8739378999453,345.88960649992805,346.5889512998983,346.5889512998983,347.08861409989186,347.07298529997934,347.0737134999363,347.08861409989186,347.3385391999036,347.5217621999327,347.5217621999327,347.67288049997296,space,1,0.13481959991622716,None,347.67780700000003,348.1878124999348,349.18695029988885,349.1711535999784,,,,,,,,,,,,,,,,,006,001,2025-04-30_00h39.00.775,Cued GoNogo Task,2024.2.4,60.14979708892638,2025-04-30 00h39.07.906289 +0200,
block/CondBlock1.xlsx,You are about to start a block of type 1 trials.,90,90,0,Go,Go,0.25,0.2,0.05,space,blue,vertical,space,2.5573424000758678,None,space,1,0.14086430007591844,None,,,,0,0,0,0,0,90,90,90,349.18695029988885,,,,,,,,,,,,,,,,349.17150749999564,349.18695029988885,349.8863562999759,349.8863562999759,350.3858514999738,350.37022579996847,350.37115309992805,350.3858514999738,350.6357476999983,350.8357069999911,350.8357069999911,350.98701979999896,space,1,0.14086430007591844,None,350.99099339998793,351.5016518998891,352.5007817998994,352.48647549992893,,,,,,,,,,,,,,,,,006,001,2025-04-30_00h39.00.775,Cued GoNogo Task,2024.2.4,60.14979708892638,2025-04-30 00h39.07.906289 +0200,
block/CondBlock1.xlsx,You are about to start a block of type 1 trials.,91,91,0,Go,Go,0.26,0.05,0.2,space,green,horizontal,space,2.5573424000758678,None,space,1,0.2262468000408262,None,,,,0,0,0,0,0,91,91,91,352.5007817998994,,,,,,,,,,,,,,,,352.4869026999222,352.5007817998994,353.20040509989485,353.20040509989485,353.69993109989446,353.6842922999058,353.68506579997484,353.69993109989446,353.9662488999311,354.14956879999954,354.14956879999954,354.3839138998883,space,1,0.2262468000408262,None,354.3879651998868,354.8987437998876,355.89807819994166,355.8822698999429,,,,,,,,,,,,,,,,,006,001,2025-04-30_00h39.00.775,Cued GoNogo Task,2024.2.4,60.14979708892638,2025-04-30 00h39.07.906289 +0200,
block/CondBlock1.xlsx,You are about to start a block of type 1 trials.,92,92,0,NoGo,NoGo,0.44,0.2,0.05,none,blue,vertical,space,2.5573424000758678,None,None,1,,,,,,0,0,0,0,0,92,92,92,355.89807819994166,,,,,,,,,,,,,,,,355.88255329988897,355.89807819994166,356.5975131999003,356.5975131999003,357.09711459989194,357.0813259999268,357.08218529995065,357.09711459989194,357.5467003999511,357.7300161999883,357.7300161999883,358.2138207999524,None,1,,,358.217219299986,358.7290474999463,359.7283929999685,359.71208839991596,358.2295929999091,358.2295929999091,,,,,,,,,,,,,,,006,001,2025-04-30_00h39.00.775,Cued GoNogo Task,2024.2.4,60.14979708892638,2025-04-30 00h39.07.906289 +0200,
block/CondBlock1.xlsx,You are about to start a block of type 1 trials.,93,93,0,Go,Go,0.13,0.2,0.05,space,green,vertical,space,2.5573424000758678,None,space,1,0.17239890003111213,None,,,,0,0,0,0,0,93,93,93,359.7283929999685,,,,,,,,,,,,,,,,359.71231999993324,359.7283929999685,360.4276411999017,360.4276411999017,360.9273014999926,360.91124089993536,360.9117830999894,360.9273014999926,361.0606029999908,361.2437146999873,361.2437146999873,361.428112900001,space,1,0.17239890003111213,None,361.43304669996724,361.9431740998989,362.94231059995946,362.92688589997124,,,,,,,,,,,,,,,,,006,001,2025-04-30_00h39.00.775,Cued GoNogo Task,2024.2.4,60.14979708892638,2025-04-30 00h39.07.906289 +0200,
block/CondBlock1.xlsx,You are about to start a block of type 1 trials.,94,94,0,Go,Go,0.44,0.05,0.2,space,blue,horizontal,space,2.5573424000758678,None,space,1,0.10643099993467331,None,,,,0,0,0,0,0,94,94,94,362.94231059995946,,,,,,,,,,,,,,,,362.92728329997044,362.94231059995946,363.64181239996105,363.64181239996105,364.1412083999021,364.12536679999903,364.1260164999403,364.1412083999021,364.59086269990075,364.77401479997206,364.77401479997206,364.8913477999158,space,1,0.10643099993467331,None,364.89467449998483,365.3901219998952,366.3893610999221,366.3734716998879,,,,,,,,,,,,,,,,,006,001,2025-04-30_00h39.00.775,Cued GoNogo Task,2024.2.4,60.14979708892638,2025-04-30 00h39.07.906289 +0200,
block/CondBlock1.xlsx,You are about to start a block of type 1 trials.,95,95,0,Go,Go,0.15,0.2,0.05,space,green,vertical,space,2.5573424000758678,None,space,1,0.1254748998908326,None,,,,0,0,0,0,0,95,95,95,366.3893610999221,,,,,,,,,,,,,,,,366.37391909991857,366.40618129994255,367.10560179990716,367.10560179990716,367.6051175999455,367.5894920999417,367.5902703999309,367.6051175999455,367.75526079989504,367.9550589999417,367.9550589999417,368.08917319995817,space,1,0.1254748998908326,None,368.0930858999491,368.60423469997477,369.603424299974,369.58812409988604,,,,,,,,,,,,,,,,,006,001,2025-04-30_00h39.00.775,Cued GoNogo Task,2024.2.4,60.14979708892638,2025-04-30 00h39.07.906289 +0200,
block/CondBlock1.xlsx,You are about to start a block of type 1 trials.,96,96,0,Go,Go,0.49,0.2,0.05,space,green,vertical,space,2.5573424000758678,None,space,1,0.15492889995221049,None,,,,0,0,0,0,0,96,96,96,369.603424299974,,,,,,,,,,,,,,,,369.58852689992636,369.603424299974,370.30285919993185,370.30285919993185,370.8024924999336,370.7865701999981,370.7871900999453,370.8024924999336,371.30197279993445,371.48515719990246,371.48515719990246,371.6530844999943,space,1,0.15492889995221049,None,371.6573166999733,372.1681326999096,373.1673161999788,373.15144579997286,,,,,,,,,,,,,,,,,006,001,2025-04-30_00h39.00.775,Cued GoNogo Task,2024.2.4,60.14979708892638,2025-04-30 00h39.07.906289 +0200,
block/CondBlock1.xlsx,You are about to start a block of type 1 trials.,97,97,0,Go,Go,0.11,0.2,0.05,space,blue,vertical,space,2.5573424000758678,None,space,1,0.19865629996638745,None,,,,0,0,0,0,0,97,97,97,373.1673161999788,,,,,,,,,,,,,,,,373.1517498999601,373.1673161999788,373.8665956999175,373.8665956999175,374.3661255999468,374.3500564999413,374.35087979992386,374.3661255999468,374.48279009992257,374.66596009989735,374.66596009989735,374.86729499988724,space,1,0.19865629996638745,None,374.8708872999996,375.38213219994213,376.38134819990955,376.36550069996156,,,,,,,,,,,,,,,,,006,001,2025-04-30_00h39.00.775,Cued GoNogo Task,2024.2.4,60.14979708892638,2025-04-30 00h39.07.906289 +0200,
block/CondBlock1.xlsx,You are about to start a block of type 1 trials.,98,98,0,Go,Go,0.26,0.05,0.2,space,green,horizontal,space,2.5573424000758678,None,space,1,0.17123229999560863,None,,,,0,0,0,0,0,98,98,98,376.38134819990955,,,,,,,,,,,,,,,,376.36591829999816,376.38134819990955,377.08073519996833,377.08073519996833,377.580341199995,377.56447059998754,377.56524109991733,377.580341199995,377.8467752999859,378.0297254999168,378.0297254999168,378.21414859988727,space,1,0.17123229999560863,None,378.2188934999285,378.72925699991174,379.7283297999529,379.71258619998116,,,,,,,,,,,,,,,,,006,001,2025-04-30_00h39.00.775,Cued GoNogo Task,2024.2.4,60.14979708892638,2025-04-30 00h39.07.906289 +0200,
block/CondBlock1.xlsx,You are about to start a block of type 1 trials.,99,99,0,Go,Go,0.28,0.05,0.2,space,green,horizontal,space,2.5573424000758678,None,space,1,0.1422622000100091,None,,,,0,0,0,0,0,99,99,99,379.7283297999529,,,,,,,,,,,,,,,,379.7127671999624,379.7283297999529,380.42801629996393,380.42801629996393,380.92761179991066,380.91160389990546,380.912358499947,380.92761179991066,381.2105143999215,381.39364599995315,381.39364599995315,381.5443973999936,space,1,0.1422622000100091,None,381.54716749989893,382.0598163999384,383.06069289997686,383.04326559999026,,,,,,,,,,,,,,,,,006,001,2025-04-30_00h39.00.775,Cued GoNogo Task,2024.2.4,60.14979708892638,2025-04-30 00h39.07.906289 +0200,
block/CondBlock1.xlsx,You are about to start a block of type 1 trials.,0,0,0,,,,,,,,,space,2.5573424000758678,None,,,,,space,0.5804249999346212,None,0,0,0,0,,,,,,,,,,,,,,,,,,,,,,,,,,,,,,,,,,,,,,,,,,,383.0584120999556,383.06069289997686,383.06069289997686,383.6438833998982,space,0.5804249999346212,None,,,,,,,,006,001,2025-04-30_00h39.00.775,Cued GoNogo Task,2024.2.4,60.14979708892638,2025-04-30 00h39.07.906289 +0200,
block/CondBlock2.xlsx,You are about to start a block of type 2 trials.,0,0,0,Go,Go,0.18,0.05,0.2,space,green,horizontal,space,274.18179619999137,None,space,1,0.1360321999527514,None,,,,0,1,1,1,0,0,0,0,657.8688768999418,,,,,,,,,383.6482619999442,383.65847359993495,383.65847359993495,657.8510053999489,space,274.18179619999137,None,657.866820700001,657.8688768999418,658.5658105999464,658.5825134998886,659.0655513999518,659.0498106000014,659.0508440999547,659.0655513999518,659.2486646999605,659.4317238999065,659.4317238999065,659.5834076999454,space,1,0.1360321999527514,None,659.5878439999651,660.0979225999909,661.0971125999931,661.0812763998983,,,,,,,,,,,,,,,,,006,001,2025-04-30_00h39.00.775,Cued GoNogo Task,2024.2.4,60.14979708892638,2025-04-30 00h39.07.906289 +0200,
block/CondBlock2.xlsx,You are about to start a block of type 2 trials.,1,1,0,Go,Go,0.2,0.2,0.05,space,green,vertical,space,274.18179619999137,None,space,1,0.15155810001306236,None,,,,0,1,1,1,0,1,1,1,661.0971125999931,,,,,,,,,,,,,,,,661.0816982999677,661.0971125999931,661.7965792999603,661.7965792999603,662.296116799931,662.2800361999543,662.280982599943,662.296116799931,662.4957985999063,662.695718599949,662.695718599949,662.8635580999544,space,1,0.15155810001306236,None,662.8671212999616,663.3787417999702,,664.3780651999405,,,,,,,,,,,,,,,,,006,001,2025-04-30_00h39.00.775,Cued GoNogo Task,2024.2.4,60.14979708892638,2025-04-30 00h39.07.906289 +0200,
block/CondBlock2.xlsx,You are about to start a block of type 2 trials.,2,2,0,Go,Go,0.22,0.05,0.2,space,blue,horizontal,space,274.18179619999137,None,space,1,0.12726580002345145,None,,,,0,1,1,1,0,2,2,2,664.3944372999249,,,,,,,,,,,,,,,,664.3784700999968,664.3944372999249,665.0771991999354,665.0939121999545,665.5767004999798,665.5605074999621,665.560972499894,665.5767004999798,665.8098364999751,665.9929526998894,665.9929526998894,666.1274686999386,space,1,0.12726580002345145,None,666.1318944999948,666.6425794999814,667.6417806999525,667.6256097999867,,,,,,,,,,,,,,,,,006,001,2025-04-30_00h39.00.775,Cued GoNogo Task,2024.2.4,60.14979708892638,2025-04-30 00h39.07.906289 +0200,
block/CondBlock2.xlsx,You are about to start a block of type 2 trials.,3,3,0,Go,Go,0.14,0.05,0.2,space,green,horizontal,space,274.18179619999137,None,space,1,0.09935020003467798,None,,,,0,1,1,1,0,3,3,3,667.6417806999525,,,,,,,,,,,,,,,,667.6258761999197,667.6417806999525,668.3410035999259,668.3410035999259,668.8405794999562,668.8247400999535,668.825389299891,668.8405794999562,668.9905504999915,669.1737513999688,669.1737513999688,669.2763400999829,space,1,0.09935020003467798,None,669.2815740999067,669.7900311999256,,670.78936039994,,,,,,,,,,,,,,,,,006,001,2025-04-30_00h39.00.775,Cued GoNogo Task,2024.2.4,60.14979708892638,2025-04-30 00h39.07.906289 +0200,
block/CondBlock2.xlsx,You are about to start a block of type 2 trials.,4,4,0,Go,Go,0.26,0.05,0.2,space,blue,horizontal,space,274.18179619999137,None,space,1,0.1391786999301985,None,,,,0,1,1,1,0,4,4,4,670.8056439999491,,,,,,,,,,,,,,,,670.7896859999746,670.8056439999491,671.4886163999327,671.5051234998973,671.9881244999124,671.9719833999407,671.9726647998905,671.9881244999124,672.2544909999706,672.4376448999392,672.4376448999392,672.588780399994,space,1,0.1391786999301985,None,672.5926668999018,673.1038273999002,674.1030786999036,674.0867932999972,,,,,,,,,,,,,,,,,006,001,2025-04-30_00h39.00.775,Cued GoNogo Task,2024.2.4,60.14979708892638,2025-04-30 00h39.07.906289 +0200,
block/CondBlock2.xlsx,You are about to start a block of type 2 trials.,5,5,0,Go,Go,0.1,0.05,0.2,space,blue,horizontal,space,274.18179619999137,None,space,1,0.15889820002485067,None,,,,0,1,1,1,0,5,5,5,674.1030786999036,,,,,,,,,,,,,,,,674.08713479992,674.1030786999036,674.8024759999244,674.8024759999244,675.3020668999525,675.2864525999175,675.2874409999931,675.3020668999525,675.4019040999701,675.6016584999161,675.6016584999161,675.7706395999994,space,1,0.15889820002485067,None,675.7758834999986,676.2847035999876,677.2836208998924,677.2678338999394,,,,,,,,,,,,,,,,,006,001,2025-04-30_00h39.00.775,Cued GoNogo Task,2024.2.4,60.14979708892638,2025-04-30 00h39.07.906289 +0200,
block/CondBlock2.xlsx,You are about to start a block of type 2 trials.,6,6,0,NoGo,NoGo,0.3,0.2,0.05,none,green,vertical,space,274.18179619999137,None,None,1,,,,,,0,1,1,1,0,6,6,6,677.2836208998924,,,,,,,,,,,,,,,,677.268109299941,677.2836208998924,677.9832995999604,677.9832995999604,678.48279369995,678.4668779999483,678.4675115999999,678.48279369995,678.7824839999666,678.982338199974,678.982338199974,679.4663537999149,None,1,,,679.4702550999355,679.9816368999891,680.9806651999243,680.9650002999697,679.4819611998973,679.4819611998973,,,,,,,,,,,,,,,006,001,2025-04-30_00h39.00.775,Cued GoNogo Task,2024.2.4,60.14979708892638,2025-04-30 00h39.07.906289 +0200,
block/CondBlock2.xlsx,You are about to start a block of type 2 trials.,7,7,0,NoGo,NoGo,0.14,0.05,0.2,none,blue,horizontal,space,274.18179619999137,None,space,0,0.14439269993454218,None,,,,0,1,1,1,0,7,7,7,680.9806651999243,,,,,,,,,,,,,,,,680.965323499986,680.9806651999243,681.6800216999836,681.6800216999836,682.179803499952,682.1636950999964,682.1643196999794,682.179803499952,682.329669599887,682.5128415999934,682.5128415999934,682.6641184999608,space,0,0.14439269993454218,None,682.6691855998943,683.1789955999702,684.1779302998912,684.1624592998996,,,,,,,,,,,,,,,,,006,001,2025-04-30_00h39.00.775,Cued GoNogo Task,2024.2.4,60.14979708892638,2025-04-30 00h39.07.906289 +0200,
block/CondBlock2.xlsx,You are about to start a block of type 2 trials.,8,8,0,Go,Go,0.13,0.2,0.05,space,blue,vertical,space,274.18179619999137,None,space,1,0.170700499904342,None,,,,0,1,1,1,0,8,8,8,684.1779302998912,,,,,,,,,,,,,,,,684.1627672999166,684.1779302998912,684.8773886999115,684.8773886999115,685.3771496999543,685.3612690999871,685.3620051998878,685.3771496999543,685.5102752998937,685.6933987999801,685.6933987999801,685.8780163999181,space,1,0.170700499904342,None,685.8852180999238,686.3927954999963,687.3918483000016,687.3758562000003,,,,,,,,,,,,,,,,,006,001,2025-04-30_00h39.00.775,Cued GoNogo Task,2024.2.4,60.14979708892638,2025-04-30 00h39.07.906289 +0200,
block/CondBlock2.xlsx,You are about to start a block of type 2 trials.,9,9,0,Go,Go,0.43,0.2,0.05,space,green,vertical,space,274.18179619999137,None,space,1,0.12838919996283948,None,,,,0,1,1,1,0,9,9,9,687.3918483000016,,,,,,,,,,,,,,,,687.3761255999561,687.3918483000016,688.0915792000014,688.0915792000014,688.5910568999825,688.5754852999235,688.5763053999981,688.5910568999825,689.0241445999127,689.207408499904,689.207408499904,689.3420912999427,space,1,0.12838919996283948,None,689.34717549989,689.8567601999966,690.8559285999509,690.8399661999429,,,,,,,,,,,,,,,,,006,001,2025-04-30_00h39.00.775,Cued GoNogo Task,2024.2.4,60.14979708892638,2025-04-30 00h39.07.906289 +0200,
block/CondBlock2.xlsx,You are about to start a block of type 2 trials.,10,10,0,Go,Go,0.14,0.2,0.05,space,green,vertical,space,274.18179619999137,None,space,1,0.12506780005060136,None,,,,0,1,1,1,0,10,10,10,690.8559285999509,,,,,,,,,,,,,,,,690.8402968998998,690.8559285999509,691.5553709999658,691.5553709999658,692.0549554999452,692.0394930999028,692.0408534999005,692.0549554999452,692.2047955999151,692.3879091999261,692.3879091999261,692.5224986999528,space,1,0.12506780005060136,None,692.526553099975,693.0373936999822,694.0367938999552,694.0205586999655,,,,,,,,,,,,,,,,,006,001,2025-04-30_00h39.00.775,Cued GoNogo Task,2024.2.4,60.14979708892638,2025-04-30 00h39.07.906289 +0200,
block/CondBlock2.xlsx,You are about to start a block of type 2 trials.,11,11,0,Go,Go,0.27,0.2,0.05,space,green,vertical,space,274.18179619999137,None,space,1,0.0824383000144735,None,,,,0,1,1,1,0,11,11,11,694.0367938999552,,,,,,,,,,,,,,,,694.0208438999252,694.0367938999552,694.7360876998864,694.7360876998864,695.2356480999151,695.2198678998975,695.2206558999605,695.2356480999151,695.5186267999234,695.7017574999481,695.7017574999481,695.7873224999057,space,1,0.0824383000144735,None,695.7914804999018,696.3019551999168,,697.3006687999004,,,,,,,,,,,,,,,,,006,001,2025-04-30_00h39.00.775,Cued GoNogo Task,2024.2.4,60.14979708892638,2025-04-30 00h39.07.906289 +0200,
block/CondBlock2.xlsx,You are about to start a block of type 2 trials.,12,12,0,Go,Go,0.3,0.05,0.2,space,green,horizontal,space,274.18179619999137,None,space,1,0.14539660001173615,None,,,,0,1,1,1,0,12,12,12,697.3171933999984,,,,,,,,,,,,,,,,697.3009213999612,697.3171933999984,697.999899199931,698.0167542999843,698.499552299967,698.4840859998949,698.4848417999456,698.499552299967,698.799294999917,698.9993901998969,698.9993901998969,699.150420299964,space,1,0.14539660001173615,None,699.1541035999544,699.6652578999056,700.6644990999484,700.6488550999202,,,,,,,,,,,,,,,,,006,001,2025-04-30_00h39.00.775,Cued GoNogo Task,2024.2.4,60.14979708892638,2025-04-30 00h39.07.906289 +0200,
block/CondBlock2.xlsx,You are about to start a block of type 2 trials.,13,13,0,Go,Go,0.18,0.2,0.05,space,blue,vertical,space,274.18179619999137,None,space,1,0.15392949990928173,None,,,,0,1,1,1,0,13,13,13,700.6644990999484,,,,,,,,,,,,,,,,700.6492321999976,700.6644990999484,701.3640249999007,701.3640249999007,701.8634580998914,701.8475774999242,701.8485240999144,701.8634580998914,702.0466381999431,702.2299624999287,702.2299624999287,702.3974461999023,space,1,0.15392949990928173,None,702.4008607999422,702.9127105999505,703.9116722999606,703.8958437999245,,,,,,,,,,,,,,,,,006,001,2025-04-30_00h39.00.775,Cued GoNogo Task,2024.2.4,60.14979708892638,2025-04-30 00h39.07.906289 +0200,
block/CondBlock2.xlsx,You are about to start a block of type 2 trials.,14,14,0,Go,Go,0.13,0.2,0.05,space,green,vertical,space,274.18179619999137,None,space,1,0.12478030007332563,None,,,,0,1,1,1,0,14,14,14,703.9116722999606,,,,,,,,,,,,,,,,703.8961089999648,703.9116722999606,704.6112423999002,704.6112423999002,705.1109727999428,705.0951274998952,705.0961080999114,705.1109727999428,705.2443269999931,705.427428899915,705.427428899915,705.5619145999663,space,1,0.12478030007332563,None,705.56609629991,706.0768398999935,707.0758778000018,707.0598736999091,,,,,,,,,,,,,,,,,006,001,2025-04-30_00h39.00.775,Cued GoNogo Task,2024.2.4,60.14979708892638,2025-04-30 00h39.07.906289 +0200,
block/CondBlock2.xlsx,You are about to start a block of type 2 trials.,15,15,0,Go,Go,0.18,0.2,0.05,space,blue,vertical,space,274.18179619999137,None,space,1,0.15857150009833276,None,,,,0,1,1,1,0,15,15,15,707.0758778000018,,,,,,,,,,,,,,,,707.0601587999845,707.0758778000018,707.7753237999277,707.7753237999277,708.2748786999146,708.2587607998867,708.2593088999856,708.2748786999146,708.458147999947,708.6412794999778,708.6412794999778,708.8089622999541,space,1,0.15857150009833276,None,708.8129664999433,709.3240613999078,710.3233914999291,710.3074173999485,,,,,,,,,,,,,,,,,006,001,2025-04-30_00h39.00.775,Cued GoNogo Task,2024.2.4,60.14979708892638,2025-04-30 00h39.07.906289 +0200,
block/CondBlock2.xlsx,You are about to start a block of type 2 trials.,16,16,0,Go,Go,0.24,0.2,0.05,space,green,vertical,space,274.18179619999137,None,space,1,0.1567949999589473,None,,,,0,1,1,1,0,16,16,16,710.3233914999291,,,,,,,,,,,,,,,,710.3077888999833,710.3233914999291,711.0226795999333,711.0226795999333,711.5223167999648,711.5062736999243,711.5069279999007,711.5223167999648,711.7720230999403,711.9552587999497,711.9552587999497,712.1226695999503,space,1,0.1567949999589473,None,712.1256443999009,712.638006299967,713.6372836999362,713.6215227999492,,,,,,,,,,,,,,,,,006,001,2025-04-30_00h39.00.775,Cued GoNogo Task,2024.2.4,60.14979708892638,2025-04-30 00h39.07.906289 +0200,
block/CondBlock2.xlsx,You are about to start a block of type 2 trials.,17,17,0,Go,Go,0.26,0.2,0.05,space,blue,vertical,space,274.18179619999137,None,space,1,0.1464509000070393,None,,,,0,1,1,1,0,17,17,17,713.6372836999362,,,,,,,,,,,,,,,,713.6217882999917,713.6372836999362,714.3365612999769,714.3365612999769,714.8361297999509,714.8202876999276,714.82129969995,714.8361297999509,715.1025514999637,715.2859597998904,715.2859597998904,715.4368341999361,space,1,0.1464509000070393,None,715.4406242999248,715.9519467999926,716.9510641999077,716.9350954999682,,,,,,,,,,,,,,,,,006,001,2025-04-30_00h39.00.775,Cued GoNogo Task,2024.2.4,60.14979708892638,2025-04-30 00h39.07.906289 +0200,
block/CondBlock2.xlsx,You are about to start a block of type 2 trials.,18,18,0,Go,Go,0.1,0.05,0.2,space,blue,horizontal,space,274.18179619999137,None,space,1,0.27044889994431287,None,,,,0,1,1,1,0,18,18,18,716.9510641999077,,,,,,,,,,,,,,,,716.9353301998926,716.9510641999077,717.6507518999279,717.6507518999279,718.1501793999923,718.1340989999007,718.1350715999724,718.1501793999923,718.2499611999374,718.4499051999301,718.4499051999301,718.7341184999095,space,1,0.27044889994431287,None,718.7375043999637,719.2492593999486,720.2484829999739,720.2325952999527,,,,,,,,,,,,,,,,,006,001,2025-04-30_00h39.00.775,Cued GoNogo Task,2024.2.4,60.14979708892638,2025-04-30 00h39.07.906289 +0200,
block/CondBlock2.xlsx,You are about to start a block of type 2 trials.,19,19,0,Go,Go,0.46,0.2,0.05,space,blue,vertical,space,274.18179619999137,None,space,1,0.13561929995194077,None,,,,0,1,1,1,0,19,19,19,720.2484829999739,,,,,,,,,,,,,,,,720.232928799931,720.2484829999739,720.9479157999158,720.9479157999158,721.4475538999541,721.4314748999896,721.4321767999791,721.4475538999541,721.9137043999508,722.0969982999377,722.0969982999377,722.2482114000013,space,1,0.13561929995194077,None,722.2535650999052,722.7635988999391,,723.7623202999821,,,,,,,,,,,,,,,,,006,001,2025-04-30_00h39.00.775,Cued GoNogo Task,2024.2.4,60.14979708892638,2025-04-30 00h39.07.906289 +0200,
block/CondBlock2.xlsx,You are about to start a block of type 2 trials.,20,20,0,Go,Go,0.3,0.05,0.2,space,blue,horizontal,space,274.18179619999137,None,space,1,0.10692849999759346,None,,,,0,1,1,1,0,20,20,20,723.7788641999941,,,,,,,,,,,,,,,,723.7625292999437,723.7788641999941,724.4615938999923,724.4782636999153,724.96118079999,724.9452903999481,724.9459134999197,724.96118079999,725.2611221999396,725.4606186999008,725.4606186999008,725.5786989999469,space,1,0.10692849999759346,None,725.5822636999656,726.0937212998979,727.0929559998913,727.076945799985,,,,,,,,,,,,,,,,,006,001,2025-04-30_00h39.00.775,Cued GoNogo Task,2024.2.4,60.14979708892638,2025-04-30 00h39.07.906289 +0200,
block/CondBlock2.xlsx,You are about to start a block of type 2 trials.,21,21,0,Go,Go,0.23,0.05,0.2,space,green,horizontal,space,274.18179619999137,None,space,1,0.15569049993064255,None,,,,0,1,1,1,0,21,21,21,727.0929559998913,,,,,,,,,,,,,,,,727.0772890999215,727.0929559998913,727.7923049998935,727.7923049998935,728.2917729999172,728.2761271999916,728.2769117999123,728.2917729999172,728.5249372998951,728.7081615999341,728.7081615999341,728.8758341999492,space,1,0.15569049993064255,None,728.880076100002,729.3909319998929,730.3898958999198,730.3742930999724,,,,,,,,,,,,,,,,,006,001,2025-04-30_00h39.00.775,Cued GoNogo Task,2024.2.4,60.14979708892638,2025-04-30 00h39.07.906289 +0200,
block/CondBlock2.xlsx,You are about to start a block of type 2 trials.,22,22,0,Go,Go,0.19,0.2,0.05,space,green,vertical,space,274.18179619999137,None,space,1,0.16394699993543327,None,,,,0,1,1,1,0,22,22,22,730.3898958999198,,,,,,,,,,,,,,,,730.3746145999758,730.3898958999198,731.0893346999073,731.0893346999073,731.588959799963,731.5733170999447,731.5740616999101,731.588959799963,731.7890035999008,731.9719788999064,731.9719788999064,732.1398763998877,space,1,0.16394699993543327,None,732.1442641998874,732.6549069999019,733.6542675999226,733.6380977999652,,,,,,,,,,,,,,,,,006,001,2025-04-30_00h39.00.775,Cued GoNogo Task,2024.2.4,60.14979708892638,2025-04-30 00h39.07.906289 +0200,
block/CondBlock2.xlsx,You are about to start a block of type 2 trials.,23,23,0,NoGo,NoGo,0.41,0.2,0.05,none,blue,vertical,space,274.18179619999137,None,None,1,,,,,,0,1,1,1,0,23,23,23,733.6542675999226,,,,,,,,,,,,,,,,733.6383446999826,733.6542675999226,734.3535132999532,734.3535132999532,734.8532644999214,734.8371516999323,734.83787389996,734.8532644999214,735.2694518999197,735.4524793999735,735.4524793999735,735.935954399989,None,1,,,735.9383366999682,736.4350773999467,737.4343533999054,737.4184066999005,735.9521774998866,735.9521774998866,,,,,,,,,,,,,,,006,001,2025-04-30_00h39.00.775,Cued GoNogo Task,2024.2.4,60.14979708892638,2025-04-30 00h39.07.906289 +0200,
block/CondBlock2.xlsx,You are about to start a block of type 2 trials.,24,24,0,Go,Go,0.17,0.2,0.05,space,blue,vertical,space,274.18179619999137,None,space,1,0.1607251000823453,None,,,,0,1,1,1,0,24,24,24,737.4343533999054,,,,,,,,,,,,,,,,737.41870499996,737.4511314999545,738.150350999902,738.150350999902,738.6500254999846,738.6340020999778,738.6347112999065,738.6500254999846,738.8331598999212,739.0162667999975,739.0162667999975,739.1844014999224,space,1,0.1607251000823453,None,739.1893206998939,739.6990305999061,740.6981725998921,740.6827790999087,,,,,,,,,,,,,,,,,006,001,2025-04-30_00h39.00.775,Cued GoNogo Task,2024.2.4,60.14979708892638,2025-04-30 00h39.07.906289 +0200,
block/CondBlock2.xlsx,You are about to start a block of type 2 trials.,25,25,0,Go,Go,0.27,0.05,0.2,space,blue,horizontal,space,274.18179619999137,None,space,1,0.10842669999692589,None,,,,0,1,1,1,0,25,25,25,740.6981725998921,,,,,,,,,,,,,,,,740.6831878999947,740.6981725998921,741.3976128998911,741.3976128998911,741.8972056999337,741.8810043999692,741.881476999959,741.8972056999337,742.1804758999497,742.3636908999179,742.3636908999179,742.4810907999054,space,1,0.10842669999692589,None,742.4848862999352,742.9962001999374,743.9954828999471,743.9795995999593,,,,,,,,,,,,,,,,,006,001,2025-04-30_00h39.00.775,Cued GoNogo Task,2024.2.4,60.14979708892638,2025-04-30 00h39.07.906289 +0200,
block/CondBlock2.xlsx,You are about to start a block of type 2 trials.,26,26,0,Go,Go,0.26,0.05,0.2,space,green,horizontal,space,274.18179619999137,None,space,1,0.29202390008140355,None,,,,0,1,1,1,0,26,26,26,743.9954828999471,,,,,,,,,,,,,,,,743.9798771999776,743.9954828999471,744.6949462998891,744.6949462998891,745.1946477999445,745.1789951999672,745.1797060999088,745.1946477999445,745.4611026999773,745.6442127999617,745.6442127999617,745.9450083998963,space,1,0.29202390008140355,None,745.9486221999396,746.4601181999315,747.4592011999339,747.4430936999852,,,,,,,,,,,,,,,,,006,001,2025-04-30_00h39.00.775,Cued GoNogo Task,2024.2.4,60.14979708892638,2025-04-30 00h39.07.906289 +0200,
block/CondBlock2.xlsx,You are about to start a block of type 2 trials.,27,27,0,Go,Go,0.22,0.2,0.05,space,green,vertical,space,274.18179619999137,None,space,1,0.15686869993805885,None,,,,0,1,1,1,0,27,27,27,747.4592011999339,,,,,,,,,,,,,,,,747.4433304999257,747.4592011999339,748.1587994999718,748.1587994999718,748.6585273999954,748.6427179999882,748.6434803999728,748.6585273999954,748.8915864999872,749.0746580999112,749.0746580999112,749.242297599907,space,1,0.15686869993805885,None,749.245754799922,749.757581199985,750.7564516999992,750.7405316999648,,,,,,,,,,,,,,,,,006,001,2025-04-30_00h39.00.775,Cued GoNogo Task,2024.2.4,60.14979708892638,2025-04-30 00h39.07.906289 +0200,
block/CondBlock2.xlsx,You are about to start a block of type 2 trials.,28,28,0,Go,Go,0.19,0.05,0.2,space,blue,horizontal,space,274.18179619999137,None,space,1,0.16620269999839365,None,,,,0,1,1,1,0,28,28,28,750.7564516999992,,,,,,,,,,,,,,,,750.740717299981,750.7564516999992,751.4561441999394,751.4561441999394,751.9555343999527,751.9397973999148,751.9405009999173,751.9555343999527,752.155701899901,752.3387997999089,752.3387997999089,752.5073476999532,space,1,0.16620269999839365,None,752.5116178999888,753.0216034998884,754.0206244000001,754.0049236998893,,,,,,,,,,,,,,,,,006,001,2025-04-30_00h39.00.775,Cued GoNogo Task,2024.2.4,60.14979708892638,2025-04-30 00h39.07.906289 +0200,
block/CondBlock2.xlsx,You are about to start a block of type 2 trials.,29,29,0,Go,Go,0.18,0.05,0.2,space,blue,horizontal,space,274.18179619999137,None,space,1,0.23764279996976256,None,,,,0,1,1,1,0,29,29,29,754.0206244000001,,,,,,,,,,,,,,,,754.0051901999395,754.0206244000001,754.7198344999924,754.7198344999924,755.2194447999354,755.2038494999288,755.2045440999791,755.2194447999354,755.4028327999404,755.6026636998868,755.6026636998868,755.8536248999881,space,1,0.23764279996976256,None,755.8571668999502,756.3688409999013,757.3678415999748,757.3521838999586,,,,,,,,,,,,,,,,,006,001,2025-04-30_00h39.00.775,Cued GoNogo Task,2024.2.4,60.14979708892638,2025-04-30 00h39.07.906289 +0200,
block/CondBlock2.xlsx,You are about to start a block of type 2 trials.,30,30,0,NoGo,NoGo,0.23,0.2,0.05,none,blue,vertical,space,274.18179619999137,None,None,1,,,,,,0,1,1,1,0,30,30,30,757.3678415999748,,,,,,,,,,,,,,,,757.352537299972,757.3678415999748,758.0675270999782,758.0675270999782,758.5670470999321,758.551030099974,758.5518390999641,758.5670470999321,758.8002460999414,758.9832381999586,758.9832381999586,759.4669022999005,None,1,,,759.4694787999615,759.9823669999605,760.9816693998873,760.96556339995,759.4829090998974,759.4829090998974,,,,,,,,,,,,,,,006,001,2025-04-30_00h39.00.775,Cued GoNogo Task,2024.2.4,60.14979708892638,2025-04-30 00h39.07.906289 +0200,
block/CondBlock2.xlsx,You are about to start a block of type 2 trials.,31,31,0,Go,Go,0.43,0.2,0.05,space,green,vertical,space,274.18179619999137,None,space,1,0.24322240008041263,None,,,,0,1,1,1,0,31,31,31,760.9816693998873,,,,,,,,,,,,,,,,760.9658715999685,760.9816693998873,761.6809795999434,761.6809795999434,762.1805647999281,762.1649978999048,762.1662000999786,762.1805647999281,762.6135773999849,762.7968508999329,762.7968508999329,763.0482380999019,space,1,0.24322240008041263,None,763.0545309999725,763.5629554999759,,764.5622175999451,,,,,,,,,,,,,,,,,006,001,2025-04-30_00h39.00.775,Cued GoNogo Task,2024.2.4,60.14979708892638,2025-04-30 00h39.07.906289 +0200,
block/CondBlock2.xlsx,You are about to start a block of type 2 trials.,32,32,0,Go,Go,0.13,0.05,0.2,space,blue,horizontal,space,274.18179619999137,None,space,1,0.17006509995553643,None,,,,0,1,1,1,0,32,32,32,764.5785750999348,,,,,,,,,,,,,,,,764.5624922999414,764.5785750999348,765.2614447999513,765.2780525999842,765.7610052999808,765.7452011998976,765.7459008999867,765.7610052999808,765.8942741999635,766.0774257999146,766.0774257999146,766.2619124999037,space,1,0.17006509995553643,None,766.2665813999483,766.7768833999289,767.7760817999952,767.7608538999921,,,,,,,,,,,,,,,,,006,001,2025-04-30_00h39.00.775,Cued GoNogo Task,2024.2.4,60.14979708892638,2025-04-30 00h39.07.906289 +0200,
block/CondBlock2.xlsx,You are about to start a block of type 2 trials.,33,33,0,Go,Go,0.45,0.05,0.2,space,green,horizontal,space,274.18179619999137,None,space,1,0.04090539994649589,None,,,,0,1,1,1,0,33,33,33,767.7760817999952,,,,,,,,,,,,,,,,767.7613251999719,767.7760817999952,768.4754583999747,768.4754583999747,768.9750096999342,768.9593568999553,768.9600651999936,768.9750096999342,769.4245801999932,769.6243073999649,769.6243073999649,769.6755297998898,space,1,0.04090539994649589,None,769.6790052999277,770.1907083999831,771.1898229999933,771.1740291999886,,,,,,,,,,,,,,,,,006,001,2025-04-30_00h39.00.775,Cued GoNogo Task,2024.2.4,60.14979708892638,2025-04-30 00h39.07.906289 +0200,
block/CondBlock2.xlsx,You are about to start a block of type 2 trials.,34,34,0,Go,Go,0.14,0.2,0.05,space,blue,vertical,space,274.18179619999137,None,space,1,0.1739716000156477,None,,,,0,1,1,1,0,34,34,34,771.1898229999933,,,,,,,,,,,,,,,,771.1743169999681,771.1898229999933,771.889316799934,771.889316799934,772.3886756999418,772.3734156999271,772.3740970999934,772.3886756999418,772.5389146999223,772.7218883999158,772.7218883999158,772.906514299917,space,1,0.1739716000156477,None,772.9116239999421,773.421205899911,774.4204513999866,774.4047690998996,,,,,,,,,,,,,,,,,006,001,2025-04-30_00h39.00.775,Cued GoNogo Task,2024.2.4,60.14979708892638,2025-04-30 00h39.07.906289 +0200,
block/CondBlock2.xlsx,You are about to start a block of type 2 trials.,35,35,0,Go,Go,0.11,0.2,0.05,space,blue,vertical,space,274.18179619999137,None,space,1,0.1935887000290677,None,,,,0,1,1,1,0,35,35,35,774.4204513999866,,,,,,,,,,,,,,,,774.4051874999423,774.4204513999866,775.1200328998966,775.1200328998966,775.6195750999032,775.6042335999664,775.6053681999911,775.6195750999032,775.7363030998968,775.9192821999313,775.9192821999313,776.1202043999219,space,1,0.1935887000290677,None,776.1239389999537,776.6352899998892,777.6344811999006,777.6188229999971,,,,,,,,,,,,,,,,,006,001,2025-04-30_00h39.00.775,Cued GoNogo Task,2024.2.4,60.14979708892638,2025-04-30 00h39.07.906289 +0200,
block/CondBlock2.xlsx,You are about to start a block of type 2 trials.,36,36,0,Go,Go,0.15,0.05,0.2,space,green,horizontal,space,274.18179619999137,None,space,1,0.12902029999531806,None,,,,0,1,1,1,0,36,36,36,777.6344811999006,,,,,,,,,,,,,,,,777.6192187999841,777.6344811999006,778.3338690999663,778.3338690999663,778.8335412999149,778.8176827999996,778.8184212999186,778.8335412999149,778.983637599973,779.1832092999248,779.1832092999248,779.3177980999462,space,1,0.12902029999531806,None,779.322758999886,779.8329020999372,,780.832067499985,,,,,,,,,,,,,,,,,006,001,2025-04-30_00h39.00.775,Cued GoNogo Task,2024.2.4,60.14979708892638,2025-04-30 00h39.07.906289 +0200,
block/CondBlock2.xlsx,You are about to start a block of type 2 trials.,37,37,0,Go,Go,0.15,0.2,0.05,space,green,vertical,space,274.18179619999137,None,space,1,0.09928099997341633,None,,,,0,1,1,1,0,37,37,37,780.8485763999633,,,,,,,,,,,,,,,,780.832346299896,780.8485763999633,781.5312806000002,781.548231099965,782.0308563999133,782.015490999911,782.0164265999338,782.0308563999133,782.1807438998949,782.3806755999103,782.3806755999103,782.4832183999242,space,1,0.09928099997341633,None,782.4873984999722,782.9968609999632,783.9960390999913,783.9806825999403,,,,,,,,,,,,,,,,,006,001,2025-04-30_00h39.00.775,Cued GoNogo Task,2024.2.4,60.14979708892638,2025-04-30 00h39.07.906289 +0200,
block/CondBlock2.xlsx,You are about to start a block of type 2 trials.,38,38,0,NoGo,NoGo,0.14,0.2,0.05,none,green,vertical,space,274.18179619999137,None,None,1,,,,,,0,1,1,1,0,38,38,38,783.9960390999913,,,,,,,,,,,,,,,,783.9811340998858,783.9960390999913,784.6953217999544,784.6953217999544,785.1951186999213,785.1789187999675,785.1797758999746,785.1951186999213,785.3449095999822,785.528073699912,785.528073699912,786.0117650999455,None,1,,,786.0145793999545,786.5272967999335,787.5264369999059,787.5106377999764,786.0276400999865,786.0276400999865,,,,,,,,,,,,,,,006,001,2025-04-30_00h39.00.775,Cued GoNogo Task,2024.2.4,60.14979708892638,2025-04-30 00h39.07.906289 +0200,
block/CondBlock2.xlsx,You are about to start a block of type 2 trials.,39,39,0,Go,Go,0.46,0.2,0.05,space,green,vertical,space,274.18179619999137,None,space,1,0.24977470003068447,None,,,,0,1,1,1,0,39,39,39,787.5264369999059,,,,,,,,,,,,,,,,787.5110767999431,787.5264369999059,788.2258632999146,788.2258632999146,788.7254978999263,788.7093736999668,788.7099304998992,788.7254978999263,789.191619799938,789.374920799979,789.374920799979,789.6277229998959,space,1,0.24977470003068447,None,789.6335398999508,790.140845799935,791.1400144998915,791.1242624999722,,,,,,,,,,,,,,,,,006,001,2025-04-30_00h39.00.775,Cued GoNogo Task,2024.2.4,60.14979708892638,2025-04-30 00h39.07.906289 +0200,
block/CondBlock2.xlsx,You are about to start a block of type 2 trials.,40,40,0,Go,Go,0.5,0.05,0.2,space,blue,horizontal,space,274.18179619999137,None,space,1,0.12950999999884516,None,,,,0,1,1,1,0,40,40,40,791.1400144998915,,,,,,,,,,,,,,,,791.1245990999741,791.1400144998915,791.8395321998978,791.8395321998978,792.3390416998882,792.3231960999547,792.3238403999712,792.3390416998882,792.8386716999812,793.0385967999464,793.0385967999464,793.1733234999701,space,1,0.12950999999884516,None,793.1776906999294,793.6878419999266,794.6871635999996,794.6712966999039,,,,,,,,,,,,,,,,,006,001,2025-04-30_00h39.00.775,Cued GoNogo Task,2024.2.4,60.14979708892638,2025-04-30 00h39.07.906289 +0200,
block/CondBlock2.xlsx,You are about to start a block of type 2 trials.,41,41,0,Go,Go,0.16,0.05,0.2,space,green,horizontal,space,274.18179619999137,None,space,1,0.252439699950628,None,,,,0,1,1,1,0,41,41,41,794.6871635999996,,,,,,,,,,,,,,,,794.6715642999625,794.6871635999996,795.3866263999371,795.3866263999371,795.8861124999821,795.8708386999788,795.8720482999925,795.8861124999821,796.052694199956,796.2359316999791,796.2359316999791,796.5034703999991,space,1,0.252439699950628,None,796.5071300999261,797.0185755999992,798.0177350000013,798.0022178998915,,,,,,,,,,,,,,,,,006,001,2025-04-30_00h39.00.775,Cued GoNogo Task,2024.2.4,60.14979708892638,2025-04-30 00h39.07.906289 +0200,
