Block,blockMsg,thisN,thisTrialN,thisRepN,CueType,StimType,CueTime,Stim_Height,Stim_Width,CRESP,Color,Orientation,key_resp_2.keys,key_resp_2.rt,key_resp_2.duration,Key_Resp.keys,Key_Resp.corr,Key_Resp.rt,Key_Resp.duration,key_resp_3.keys,key_resp_3.rt,key_resp_3.duration,Blocks.thisRepN,Blocks.thisTrialN,Blocks.thisN,Blocks.thisIndex,Trials.thisRepN,Trials.thisTrialN,Trials.thisN,Trials.thisIndex,thisRow.t,notes,TaskIntro.started,fixation.started,key_resp.started,TaskIntro.stopped,key_resp.keys,key_resp.rt,key_resp.duration,BlockStart.started,BlockStart_Msg.started,key_resp_2.started,BlockStart.stopped,Blocks.key_resp_2.keys,Blocks.key_resp_2.rt,Blocks.key_resp_2.duration,Fixation.started,FixationPhase.started,Blank.started,FixationPhase.stopped,Blank.stopped,Fixation.stopped,Trial.started,Cue.started,Cue.stopped,GoNogo_Stim.started,Key_Resp.started,Trial.stopped,Trials.Key_Resp.keys,Trials.Key_Resp.corr,Trials.Key_Resp.rt,Trials.Key_Resp.duration,Feedback.started,Feedback_Present.started,Feedback_Present.stopped,Feedback.stopped,GoNogo_Stim.stopped,Key_Resp.stopped,BlockEnd.started,BlockEnd_Msg.started,key_resp_3.started,BlockEnd.stopped,Blocks.key_resp_3.keys,Blocks.key_resp_3.rt,Blocks.key_resp_3.duration,TaskEnd.started,ThankYou.started,key_resp_4.started,TaskEnd.stopped,key_resp_4.keys,key_resp_4.rt,key_resp_4.duration,participant,session,date,expName,psychopyVersion,frameRate,expStart,
,,,,,,,,,,,,,,,,,,,,,,,,,,,,,,,,,0.0018387999152764678,0.004083600011654198,0.004083600011654198,36.82359239994548,space,36.81196129997261,None,,,,,,,,,,,,,,,,,,,,,,,,,,,,,,,,,,,,,,,,,,,,010,001,2025-05-01_00h24.21.222,Cued GoNogo Task,2024.2.4,60.20331862590803,2025-05-01 00h24.28.480621 +0200,
block/CondBlock1.xlsx,You are about to start a block of type 1 trials.,0,0,0,Go,Go,0.13,0.05,0.2,space,blue,horizontal,space,1.4278074000030756,None,space,1,0.23100899998098612,None,,,,0,0,0,0,0,0,0,0,38.33145079994574,,,,,,,,,36.833311899914406,36.837069600005634,36.837069600005634,38.270507699926384,space,1.4278074000030756,None,38.328381299972534,38.33145079994574,38.98557509994134,39.03537519997917,39.48481569997966,39.46945019997656,39.470399699988775,39.48481569997966,39.61820339993574,39.801402999903075,39.801402999903075,40.035548899904825,space,1,0.23100899998098612,None,40.046432100003585,40.550697900005616,41.54979139997158,41.53427699999884,,,,,,,,,,,,,,,,,010,001,2025-05-01_00h24.21.222,Cued GoNogo Task,2024.2.4,60.20331862590803,2025-05-01 00h24.28.480621 +0200,
block/CondBlock1.xlsx,You are about to start a block of type 1 trials.,1,1,0,NoGo,NoGo,0.43,0.05,0.2,none,blue,horizontal,space,1.4278074000030756,None,None,1,,,,,,0,0,0,0,0,1,1,1,41.54979139997158,,,,,,,,,,,,,,,,41.53464219998568,41.54979139997158,42.2493497999385,42.2493497999385,42.74884419993032,42.73305519996211,42.73371559998486,42.74884419993032,43.1818400999764,43.36514309991617,43.36514309991617,43.84879680001177,None,1,,,43.85117639997043,44.36421559995506,45.36341399990488,45.34806119999848,43.8644212000072,43.8644212000072,,,,,,,,,,,,,,,010,001,2025-05-01_00h24.21.222,Cued GoNogo Task,2024.2.4,60.20331862590803,2025-05-01 00h24.28.480621 +0200,
block/CondBlock1.xlsx,You are about to start a block of type 1 trials.,2,2,0,Go,Go,0.12,0.2,0.05,space,blue,vertical,space,1.4278074000030756,None,space,1,0.15382629993837327,None,,,,0,0,0,0,0,2,2,2,45.36341399990488,,,,,,,,,,,,,,,,45.34846959996503,45.36341399990488,46.0627418999793,46.0627418999793,46.562349000014365,46.5466410999652,46.547282699961215,46.562349000014365,46.695611999952234,46.878887399914674,46.878887399914674,47.046233400003985,space,1,0.15382629993837327,None,47.05073359992821,47.561610499979,48.56089129997417,48.54477829998359,,,,,,,,,,,,,,,,,010,001,2025-05-01_00h24.21.222,Cued GoNogo Task,2024.2.4,60.20331862590803,2025-05-01 00h24.28.480621 +0200,
block/CondBlock1.xlsx,You are about to start a block of type 1 trials.,3,3,0,NoGo,NoGo,0.18,0.2,0.05,none,green,vertical,space,1.4278074000030756,None,None,1,,,,,,0,0,0,0,0,3,3,3,48.56089129997417,,,,,,,,,,,,,,,,48.545057800016366,48.56089129997417,49.260294399922714,49.260294399922714,49.75980549992528,49.74383119994309,49.74448579992168,49.75980549992528,49.94286720000673,50.126085600000806,50.126085600000806,50.60954849992413,None,1,,,50.61154479999095,51.108530699973926,52.10783599992283,52.091755599947646,50.62574659998063,50.62574659998063,,,,,,,,,,,,,,,010,001,2025-05-01_00h24.21.222,Cued GoNogo Task,2024.2.4,60.20331862590803,2025-05-01 00h24.28.480621 +0200,
block/CondBlock1.xlsx,You are about to start a block of type 1 trials.,4,4,0,Go,Go,0.24,0.05,0.2,space,green,horizontal,space,1.4278074000030756,None,space,1,0.19576000003144145,None,,,,0,0,0,0,0,4,4,4,52.10783599992283,,,,,,,,,,,,,,,,52.09199889993761,52.12465569993947,52.823926399927586,52.823926399927586,53.32348979997914,53.307973699993454,53.30891499994323,53.32348979997914,53.57340379990637,53.75646079995204,53.75646079995204,53.957428699941374,space,1,0.19576000003144145,None,53.9618794999551,54.47261519997846,55.472344400011934,55.45591639995109,,,,,,,,,,,,,,,,,010,001,2025-05-01_00h24.21.222,Cued GoNogo Task,2024.2.4,60.20331862590803,2025-05-01 00h24.28.480621 +0200,
block/CondBlock1.xlsx,You are about to start a block of type 1 trials.,5,5,0,Go,Go,0.21,0.05,0.2,space,blue,horizontal,space,1.4278074000030756,None,space,1,0.1866623000241816,None,,,,0,0,0,0,0,5,5,5,55.472344400011934,,,,,,,,,,,,,,,,55.45624039997347,55.472344400011934,56.171172600006685,56.171172600006685,56.67082899995148,56.65456199995242,56.65502920001745,56.67082899995148,56.887210299959406,57.070410699932836,57.070410699932836,57.27161659998819,space,1,0.1866623000241816,None,57.278344699996524,57.786519999965094,58.785875499947,58.76984999992419,,,,,,,,,,,,,,,,,010,001,2025-05-01_00h24.21.222,Cued GoNogo Task,2024.2.4,60.20331862590803,2025-05-01 00h24.28.480621 +0200,
block/CondBlock1.xlsx,You are about to start a block of type 1 trials.,6,6,0,Go,Go,0.11,0.2,0.05,space,blue,vertical,space,1.4278074000030756,None,space,1,0.2840088000521064,None,,,,0,0,0,0,0,6,6,6,58.785875499947,,,,,,,,,,,,,,,,58.77015170000959,58.785875499947,59.48518519999925,59.48518519999925,59.98491889995057,59.96864249999635,59.96917209995445,59.98491889995057,60.10112849995494,60.28449140000157,60.28449140000157,60.58545739995316,space,1,0.2840088000521064,None,60.59098490001634,61.10054040001705,,62.09978859999683,,,,,,,,,,,,,,,,,010,001,2025-05-01_00h24.21.222,Cued GoNogo Task,2024.2.4,60.20331862590803,2025-05-01 00h24.28.480621 +0200,
block/CondBlock1.xlsx,You are about to start a block of type 1 trials.,7,7,0,Go,Go,0.15,0.2,0.05,space,blue,vertical,space,1.4278074000030756,None,space,1,0.17590409994591027,None,,,,0,0,0,0,0,7,7,7,62.11631509999279,,,,,,,,,,,,,,,,62.10004529997241,62.11631509999279,62.79922409995925,62.8157324999338,63.29847999999765,63.28271769999992,63.28339190001134,63.29847999999765,63.44857229990885,63.648395699914545,63.648395699914545,63.83269079995807,space,1,0.17590409994591027,None,63.83773739996832,64.347740600002,65.34709669998847,65.33145359996706,,,,,,,,,,,,,,,,,010,001,2025-05-01_00h24.21.222,Cued GoNogo Task,2024.2.4,60.20331862590803,2025-05-01 00h24.28.480621 +0200,
block/CondBlock1.xlsx,You are about to start a block of type 1 trials.,8,8,0,NoGo,NoGo,0.3,0.05,0.2,none,blue,horizontal,space,1.4278074000030756,None,None,1,,,,,,0,0,0,0,0,8,8,8,65.34709669998847,,,,,,,,,,,,,,,,65.3317605999764,65.34709669998847,66.04652289999649,66.04652289999649,66.54610369994771,66.53020199993625,66.53080969990697,66.54610369994771,66.84581610001624,67.04554209997877,67.04554209997877,67.52926009998191,None,1,,,67.53182059992105,68.0448488999391,69.0439708000049,69.02812069992069,67.54519460001029,67.54519460001029,,,,,,,,,,,,,,,010,001,2025-05-01_00h24.21.222,Cued GoNogo Task,2024.2.4,60.20331862590803,2025-05-01 00h24.28.480621 +0200,
block/CondBlock1.xlsx,You are about to start a block of type 1 trials.,9,9,0,NoGo,NoGo,0.17,0.05,0.2,none,blue,horizontal,space,1.4278074000030756,None,None,1,,,,,,0,0,0,0,0,9,9,9,69.0439708000049,,,,,,,,,,,,,,,,69.02848380000796,69.0439708000049,69.74339760001749,69.74339760001749,70.24293880001642,70.22707179991994,70.22781740000937,70.24293880001642,70.42621309997048,70.60915779997595,70.60915779997595,71.09292490000371,None,1,,,71.0934627999086,71.60852050001267,72.60771349992137,72.59167739993427,71.10907879995648,71.10907879995648,,,,,,,,,,,,,,,010,001,2025-05-01_00h24.21.222,Cued GoNogo Task,2024.2.4,60.20331862590803,2025-05-01 00h24.28.480621 +0200,
block/CondBlock1.xlsx,You are about to start a block of type 1 trials.,10,10,0,NoGo,NoGo,0.26,0.2,0.05,none,green,vertical,space,1.4278074000030756,None,None,1,,,,,,0,0,0,0,0,10,10,10,72.60771349992137,,,,,,,,,,,,,,,,72.59197989990935,72.60771349992137,73.30722859990783,73.30722859990783,73.80679999990389,73.79078779998235,73.79159149993211,73.80679999990389,74.0730841999175,74.2562220999971,74.2562220999971,74.74038739991374,None,1,,,74.74107059999369,75.25555170001462,76.2546474999981,76.23855139990337,74.75582039996516,74.75582039996516,,,,,,,,,,,,,,,010,001,2025-05-01_00h24.21.222,Cued GoNogo Task,2024.2.4,60.20331862590803,2025-05-01 00h24.28.480621 +0200,
block/CondBlock1.xlsx,You are about to start a block of type 1 trials.,11,11,0,Go,Go,0.27,0.05,0.2,space,green,horizontal,space,1.4278074000030756,None,space,1,0.14462279994040728,None,,,,0,0,0,0,0,11,11,11,76.2546474999981,,,,,,,,,,,,,,,,76.23876699991524,76.2546474999981,76.95411619998049,76.95411619998049,77.45352749992162,77.43786099995486,77.43852239998523,77.45352749992162,77.73672799998894,77.91984029999003,77.91984029999003,78.07078469998669,space,1,0.14462279994040728,None,78.07385429996066,78.5861428999342,79.58527899999171,79.5694269000087,,,,,,,,,,,,,,,,,010,001,2025-05-01_00h24.21.222,Cued GoNogo Task,2024.2.4,60.20331862590803,2025-05-01 00h24.28.480621 +0200,
block/CondBlock1.xlsx,You are about to start a block of type 1 trials.,12,12,0,Go,Go,0.16,0.2,0.05,space,green,vertical,space,1.4278074000030756,None,space,1,0.17915219999849796,None,,,,0,0,0,0,0,12,12,12,79.58527899999171,,,,,,,,,,,,,,,,79.56968630000483,79.58527899999171,80.28465699998196,80.28465699998196,80.78417839994654,80.76856339990627,80.76916199992411,80.78417839994654,80.95072929991875,81.134051800007,81.134051800007,81.31829019996803,space,1,0.17915219999849796,None,81.32253709994256,81.83335390000138,82.83254009997472,82.81678919994738,,,,,,,,,,,,,,,,,010,001,2025-05-01_00h24.21.222,Cued GoNogo Task,2024.2.4,60.20331862590803,2025-05-01 00h24.28.480621 +0200,
block/CondBlock1.xlsx,You are about to start a block of type 1 trials.,13,13,0,Go,Go,0.13,0.2,0.05,space,green,vertical,space,1.4278074000030756,None,space,1,0.20513049990404397,None,,,,0,0,0,0,0,13,13,13,82.83254009997472,,,,,,,,,,,,,,,,82.81706619996112,82.83254009997472,83.53197479993105,83.53197479993105,84.03141579998191,84.01542439998593,84.01598689996172,84.03141579998191,84.16466549993493,84.34801159997005,84.34801159997005,84.56579239992425,space,1,0.20513049990404397,None,84.57039169990458,85.0807560000103,86.07978969998658,86.06374949996825,,,,,,,,,,,,,,,,,010,001,2025-05-01_00h24.21.222,Cued GoNogo Task,2024.2.4,60.20331862590803,2025-05-01 00h24.28.480621 +0200,
block/CondBlock1.xlsx,You are about to start a block of type 1 trials.,14,14,0,Go,Go,0.12,0.05,0.2,space,blue,horizontal,space,1.4278074000030756,None,space,1,0.22092980006709695,None,,,,0,0,0,0,0,14,14,14,86.07978969998658,,,,,,,,,,,,,,,,86.06398669991177,86.07978969998658,86.77927910001017,86.77927910001017,87.27901729999576,87.26307869993616,87.26376989996061,87.27901729999576,87.41211779997684,87.5954167000018,87.5954167000018,87.829572299961,space,1,0.22092980006709695,None,87.83357539994176,88.34480209997855,89.34387049998622,89.3279355999548,,,,,,,,,,,,,,,,,010,001,2025-05-01_00h24.21.222,Cued GoNogo Task,2024.2.4,60.20331862590803,2025-05-01 00h24.28.480621 +0200,
block/CondBlock1.xlsx,You are about to start a block of type 1 trials.,15,15,0,Go,Go,0.45,0.2,0.05,space,blue,vertical,space,1.4278074000030756,None,space,1,0.16058639995753765,None,,,,0,0,0,0,0,15,15,15,89.34387049998622,,,,,,,,,,,,,,,,89.3282108999556,89.34387049998622,90.04339239990804,90.04339239990804,90.54283229995053,90.5272497999249,90.52821549994405,90.54283229995053,90.99255369999446,91.19226249994244,91.19226249994244,91.36050539999269,space,1,0.16058639995753765,None,91.36398499994539,91.87484679999761,92.87420239998028,92.85870699991938,,,,,,,,,,,,,,,,,010,001,2025-05-01_00h24.21.222,Cued GoNogo Task,2024.2.4,60.20331862590803,2025-05-01 00h24.28.480621 +0200,
block/CondBlock1.xlsx,You are about to start a block of type 1 trials.,16,16,0,NoGo,NoGo,0.14,0.2,0.05,none,green,vertical,space,1.4278074000030756,None,None,1,,,,,,0,0,0,0,0,16,16,16,92.87420239998028,,,,,,,,,,,,,,,,92.85898849996738,92.87420239998028,93.57388789998367,93.57388789998367,94.07332610001322,94.05729859997518,94.05778889998328,94.07332610001322,94.22325339994859,94.40636449994054,94.40636449994054,94.88998119998723,None,1,,,94.89228319993708,95.40570010000374,96.40475869993679,96.38853110000491,94.90584619995207,94.90584619995207,,,,,,,,,,,,,,,010,001,2025-05-01_00h24.21.222,Cued GoNogo Task,2024.2.4,60.20331862590803,2025-05-01 00h24.28.480621 +0200,
block/CondBlock1.xlsx,You are about to start a block of type 1 trials.,17,17,0,Go,Go,0.12,0.05,0.2,space,green,horizontal,space,1.4278074000030756,None,space,1,0.16857940005138516,None,,,,0,0,0,0,0,17,17,17,96.40475869993679,,,,,,,,,,,,,,,,96.38874859991483,96.40475869993679,97.10407749994192,97.10407749994192,97.60380799998529,97.58795829990413,97.58865459996741,97.60380799998529,97.73716419993434,97.92018169991206,97.92018169991206,98.10444789996836,space,1,0.16857940005138516,None,98.10864979994949,98.6197582000168,99.61868309997953,99.6031934999628,,,,,,,,,,,,,,,,,010,001,2025-05-01_00h24.21.222,Cued GoNogo Task,2024.2.4,60.20331862590803,2025-05-01 00h24.28.480621 +0200,
block/CondBlock1.xlsx,You are about to start a block of type 1 trials.,18,18,0,Go,Go,0.47,0.2,0.05,space,blue,vertical,space,1.4278074000030756,None,space,1,0.10863599996082485,None,,,,0,0,0,0,0,18,18,18,99.61868309997953,,,,,,,,,,,,,,,,99.60356789990328,99.61868309997953,100.31819669995457,100.31819669995457,100.81784649996553,100.8016598999966,100.80218909995165,100.81784649996553,101.30069720000029,101.48401279991958,101.48401279991958,101.60174029995687,space,1,0.10863599996082485,None,101.60587269999087,102.11697159998585,,103.11616390000563,,,,,,,,,,,,,,,,,010,001,2025-05-01_00h24.21.222,Cued GoNogo Task,2024.2.4,60.20331862590803,2025-05-01 00h24.28.480621 +0200,
block/CondBlock1.xlsx,You are about to start a block of type 1 trials.,19,19,0,Go,Go,0.18,0.2,0.05,space,green,vertical,space,1.4278074000030756,None,space,1,0.16700829996261746,None,,,,0,0,0,0,0,19,19,19,103.13255769992247,,,,,,,,,,,,,,,,103.1165574999759,103.13255769992247,103.81535229994915,103.83186569996178,104.31477619998623,104.29887329996563,104.2995183999883,104.31477619998623,104.49799499998335,104.68117140000686,104.68117140000686,104.85074459994212,space,1,0.16700829996261746,None,104.85622099996544,105.36403279996011,106.36313499999233,106.34745819994714,,,,,,,,,,,,,,,,,010,001,2025-05-01_00h24.21.222,Cued GoNogo Task,2024.2.4,60.20331862590803,2025-05-01 00h24.28.480621 +0200,
block/CondBlock1.xlsx,You are about to start a block of type 1 trials.,20,20,0,Go,Go,0.19,0.2,0.05,space,blue,vertical,space,1.4278074000030756,None,space,1,0.15079280000645667,None,,,,0,0,0,0,0,20,20,20,106.36313499999233,,,,,,,,,,,,,,,,106.34771030000411,106.36313499999233,107.06269659998361,107.06269659998361,107.56217920000199,107.54608120000921,107.54654869996011,107.56217920000199,107.76214919995982,107.9453936999198,107.9453936999198,108.11259209993295,space,1,0.15079280000645667,None,108.1154552999651,108.62814749998506,109.62721199996304,109.61128760001156,,,,,,,,,,,,,,,,,010,001,2025-05-01_00h24.21.222,Cued GoNogo Task,2024.2.4,60.20331862590803,2025-05-01 00h24.28.480621 +0200,
block/CondBlock1.xlsx,You are about to start a block of type 1 trials.,21,21,0,Go,Go,0.14,0.2,0.05,space,blue,vertical,space,1.4278074000030756,None,space,1,0.13631170010194182,None,,,,0,0,0,0,0,21,21,21,109.62721199996304,,,,,,,,,,,,,,,,109.61164539994206,109.62721199996304,110.32652259990573,110.32652259990573,110.82614279992413,110.8104187999852,110.81112560001202,110.82614279992413,110.97605319996364,111.15948789997492,111.15948789997492,111.31029209995177,space,1,0.13631170010194182,None,111.31453909992706,111.82538489997387,112.82471869990695,112.80902279994916,,,,,,,,,,,,,,,,,010,001,2025-05-01_00h24.21.222,Cued GoNogo Task,2024.2.4,60.20331862590803,2025-05-01 00h24.28.480621 +0200,
block/CondBlock1.xlsx,You are about to start a block of type 1 trials.,22,22,0,Go,Go,0.15,0.2,0.05,space,blue,vertical,space,1.4278074000030756,None,space,1,0.13932620000559837,None,,,,0,0,0,0,0,22,22,22,112.82471869990695,,,,,,,,,,,,,,,,112.80939079995733,112.82471869990695,113.52414170000702,113.52414170000702,114.02375880000181,114.00742259994149,114.00792329991236,114.02375880000181,114.17335649998859,114.37322189996485,114.37322189996485,114.52417499991134,space,1,0.13932620000559837,None,114.52741280000191,115.03938480000943,116.03864769998472,116.02241929993033,,,,,,,,,,,,,,,,,010,001,2025-05-01_00h24.21.222,Cued GoNogo Task,2024.2.4,60.20331862590803,2025-05-01 00h24.28.480621 +0200,
block/CondBlock1.xlsx,You are about to start a block of type 1 trials.,23,23,0,Go,Go,0.23,0.05,0.2,space,green,horizontal,space,1.4278074000030756,None,space,1,0.17966850008815527,None,,,,0,0,0,0,0,23,23,23,116.03864769998472,,,,,,,,,,,,,,,,116.02267669991124,116.03864769998472,116.73813469999004,116.73813469999004,117.23756319994573,117.22132129990496,117.2217824999243,117.23756319994573,117.47057299991138,117.65386019996367,117.65386019996367,117.83816339995246,space,1,0.17966850008815527,None,117.84154429996852,118.35348389996216,119.35246939992066,119.33720449998509,,,,,,,,,,,,,,,,,010,001,2025-05-01_00h24.21.222,Cued GoNogo Task,2024.2.4,60.20331862590803,2025-05-01 00h24.28.480621 +0200,
block/CondBlock1.xlsx,You are about to start a block of type 1 trials.,24,24,0,Go,Go,0.2,0.2,0.05,space,blue,vertical,space,1.4278074000030756,None,space,1,0.14577139995526522,None,,,,0,0,0,0,0,24,24,24,119.35246939992066,,,,,,,,,,,,,,,,119.33749999990687,119.35246939992066,120.0519692999078,120.0519692999078,120.55165279994253,120.53548979992047,120.5360852999147,120.55165279994253,120.75116679992061,120.95129439991433,120.95129439991433,121.1025396999903,space,1,0.14577139995526522,None,121.10643970000092,121.61727289995179,122.61645799991675,122.6007016999647,,,,,,,,,,,,,,,,,010,001,2025-05-01_00h24.21.222,Cued GoNogo Task,2024.2.4,60.20331862590803,2025-05-01 00h24.28.480621 +0200,
block/CondBlock1.xlsx,You are about to start a block of type 1 trials.,25,25,0,Go,Go,0.15,0.2,0.05,space,blue,vertical,space,1.4278074000030756,None,space,1,0.14636769995559007,None,,,,0,0,0,0,0,25,25,25,122.61645799991675,,,,,,,,,,,,,,,,122.60104519990273,122.61645799991675,123.31586759991478,123.31586759991478,123.81551320001017,123.79972879996058,123.8005224999506,123.81551320001017,123.9655691999942,124.16527040000074,124.16527040000074,124.31610139994882,space,1,0.14636769995559007,None,124.31916429998819,124.83142539998516,125.8305715000024,125.8144820999587,,,,,,,,,,,,,,,,,010,001,2025-05-01_00h24.21.222,Cued GoNogo Task,2024.2.4,60.20331862590803,2025-05-01 00h24.28.480621 +0200,
block/CondBlock1.xlsx,You are about to start a block of type 1 trials.,26,26,0,NoGo,NoGo,0.2,0.2,0.05,none,blue,vertical,space,1.4278074000030756,None,None,1,,,,,,0,0,0,0,0,26,26,26,125.8305715000024,,,,,,,,,,,,,,,,125.81468299997505,125.8305715000024,126.5299472999759,126.5299472999759,127.0295467999531,127.01411429990549,127.01471679995302,127.0295467999531,127.22931580001023,127.42926489992533,127.42926489992533,127.91310689994134,None,1,,,127.91650599997956,128.42837149999104,129.42751539999153,129.4115533999866,127.92877839994617,127.92877839994617,,,,,,,,,,,,,,,010,001,2025-05-01_00h24.21.222,Cued GoNogo Task,2024.2.4,60.20331862590803,2025-05-01 00h24.28.480621 +0200,
block/CondBlock1.xlsx,You are about to start a block of type 1 trials.,27,27,0,Go,Go,0.29,0.05,0.2,space,green,horizontal,space,1.4278074000030756,None,space,1,0.13873660005629063,None,,,,0,0,0,0,0,27,27,27,129.42751539999153,,,,,,,,,,,,,,,,129.41181149997283,129.42751539999153,130.1270319999894,130.1270319999894,130.62653639994096,130.6106311000185,130.61126229993533,130.62653639994096,130.92630739999004,131.1095405999804,131.1095405999804,131.26049139990937,space,1,0.13873660005629063,None,131.26360860001296,131.77563739998732,132.77483469992876,132.75861569994595,,,,,,,,,,,,,,,,,010,001,2025-05-01_00h24.21.222,Cued GoNogo Task,2024.2.4,60.20331862590803,2025-05-01 00h24.28.480621 +0200,
block/CondBlock1.xlsx,You are about to start a block of type 1 trials.,28,28,0,Go,Go,0.24,0.2,0.05,space,blue,vertical,space,1.4278074000030756,None,space,1,0.22489710000809282,None,,,,0,0,0,0,0,28,28,28,132.77483469992876,,,,,,,,,,,,,,,,132.7588209999958,132.77483469992876,133.4739694999298,133.4739694999298,133.97357559995726,133.9574840000132,133.95794290001504,133.97357559995726,134.2234383999603,134.40675999992527,134.40675999992527,134.64085440000053,space,1,0.22489710000809282,None,134.64479189994745,135.15617490001023,136.15531409997493,136.1393201999599,,,,,,,,,,,,,,,,,010,001,2025-05-01_00h24.21.222,Cued GoNogo Task,2024.2.4,60.20331862590803,2025-05-01 00h24.28.480621 +0200,
block/CondBlock1.xlsx,You are about to start a block of type 1 trials.,29,29,0,Go,Go,0.15,0.05,0.2,space,green,horizontal,space,1.4278074000030756,None,space,1,0.15991779998876154,None,,,,0,0,0,0,0,29,29,29,136.15531409997493,,,,,,,,,,,,,,,,136.13958839990664,136.15531409997493,136.8549015999306,136.8549015999306,137.3542829999933,137.33821849990636,137.33871589996852,137.3542829999933,137.5040003999602,137.70394959999248,137.70394959999248,137.87158729997464,space,1,0.15991779998876154,None,137.87428039999213,138.3867536999751,139.38599899993278,139.36987870000303,,,,,,,,,,,,,,,,,010,001,2025-05-01_00h24.21.222,Cued GoNogo Task,2024.2.4,60.20331862590803,2025-05-01 00h24.28.480621 +0200,
block/CondBlock1.xlsx,You are about to start a block of type 1 trials.,30,30,0,Go,Go,0.23,0.2,0.05,space,green,vertical,space,1.4278074000030756,None,space,1,0.20783810003194958,None,,,,0,0,0,0,0,30,30,30,139.38599899993278,,,,,,,,,,,,,,,,139.37005399994086,139.38599899993278,140.0854867999442,140.0854867999442,140.58493589994032,140.56913849990815,140.56980219995603,140.58493589994032,140.81830689997878,141.00137650000397,141.00137650000397,141.21871579997241,space,1,0.20783810003194958,None,141.22221739997622,141.73407519992907,142.733372699935,142.71751159999985,,,,,,,,,,,,,,,,,010,001,2025-05-01_00h24.21.222,Cued GoNogo Task,2024.2.4,60.20331862590803,2025-05-01 00h24.28.480621 +0200,
block/CondBlock1.xlsx,You are about to start a block of type 1 trials.,31,31,0,Go,Go,0.28,0.2,0.05,space,green,vertical,space,1.4278074000030756,None,space,1,0.2108974999282509,None,,,,0,0,0,0,0,31,31,31,142.733372699935,,,,,,,,,,,,,,,,142.71786709991284,142.733372699935,143.43248630000744,143.43248630000744,143.93227969994769,143.91619589994662,143.91658630000893,143.93227969994769,144.21541669999715,144.39870769996196,144.39870769996196,144.61599999992177,space,1,0.2108974999282509,None,144.6199722000165,145.1312489999691,146.13054089993238,146.1145070999628,,,,,,,,,,,,,,,,,010,001,2025-05-01_00h24.21.222,Cued GoNogo Task,2024.2.4,60.20331862590803,2025-05-01 00h24.28.480621 +0200,
block/CondBlock1.xlsx,You are about to start a block of type 1 trials.,32,32,0,Go,Go,0.19,0.2,0.05,space,green,vertical,space,1.4278074000030756,None,space,1,0.1515602000290528,None,,,,0,0,0,0,0,32,32,32,146.13054089993238,,,,,,,,,,,,,,,,146.11471160000656,146.13054089993238,146.82994959992357,146.82994959992357,147.32974479999393,147.3134978999151,147.31413630000316,147.32974479999393,147.52938700001687,147.71240740001667,147.71240740001667,147.88021999993362,space,1,0.1515602000290528,None,147.88400809990708,148.3953081999207,149.39450940000825,149.3787129999837,,,,,,,,,,,,,,,,,010,001,2025-05-01_00h24.21.222,Cued GoNogo Task,2024.2.4,60.20331862590803,2025-05-01 00h24.28.480621 +0200,
block/CondBlock1.xlsx,You are about to start a block of type 1 trials.,33,33,0,Go,Go,0.12,0.2,0.05,space,green,vertical,space,1.4278074000030756,None,space,1,0.2016423000022769,None,,,,0,0,0,0,0,33,33,33,149.39450940000825,,,,,,,,,,,,,,,,149.3790743999416,149.39450940000825,150.09375369991176,150.09375369991176,150.5934852999635,150.57761129993014,150.57824569998775,150.5934852999635,150.7266993999947,150.9099942999892,150.9099942999892,151.1280345999403,space,1,0.2016423000022769,None,151.13218009995762,151.64260349993128,152.64181549998466,152.62599649990443,,,,,,,,,,,,,,,,,010,001,2025-05-01_00h24.21.222,Cued GoNogo Task,2024.2.4,60.20331862590803,2025-05-01 00h24.28.480621 +0200,
block/CondBlock1.xlsx,You are about to start a block of type 1 trials.,34,34,0,Go,Go,0.18,0.2,0.05,space,blue,vertical,space,1.4278074000030756,None,space,1,0.16156020003836602,None,,,,0,0,0,0,0,34,34,34,152.64181549998466,,,,,,,,,,,,,,,,152.6263812999241,152.64181549998466,153.3411321999738,153.3411321999738,153.84075049997773,153.82512679998763,153.8260450999951,153.84075049997773,154.02401839999948,154.20725829992443,154.20725829992443,154.37493549997453,space,1,0.16156020003836602,None,154.37883399997372,154.8899584999308,155.88914360001218,155.8732403999893,,,,,,,,,,,,,,,,,010,001,2025-05-01_00h24.21.222,Cued GoNogo Task,2024.2.4,60.20331862590803,2025-05-01 00h24.28.480621 +0200,
block/CondBlock1.xlsx,You are about to start a block of type 1 trials.,35,35,0,Go,Go,0.21,0.2,0.05,space,blue,vertical,space,1.4278074000030756,None,space,1,0.1687287000240758,None,,,,0,0,0,0,0,35,35,35,155.88914360001218,,,,,,,,,,,,,,,,155.87348840001505,155.88914360001218,156.5885948999785,156.5885948999785,157.08811020001303,157.07215309992898,157.072809199919,157.08811020001303,157.30473079998046,157.4878021000186,157.4878021000186,157.6728821999859,space,1,0.1687287000240758,None,157.677858299925,158.1872668999713,159.1863294999348,159.17093019990716,,,,,,,,,,,,,,,,,010,001,2025-05-01_00h24.21.222,Cued GoNogo Task,2024.2.4,60.20331862590803,2025-05-01 00h24.28.480621 +0200,
block/CondBlock1.xlsx,You are about to start a block of type 1 trials.,36,36,0,Go,Go,0.2,0.2,0.05,space,green,vertical,space,1.4278074000030756,None,space,1,0.2067158999852836,None,,,,0,0,0,0,0,36,36,36,159.1863294999348,,,,,,,,,,,,,,,,159.17119209992234,159.1863294999348,159.8858739999123,159.8858739999123,160.38560019992292,160.36941879999358,160.37006260000635,160.38560019992292,160.5853004999226,160.78517920000013,160.78517920000013,161.00309169990942,space,1,0.2067158999852836,None,161.0081635999959,161.5178283000132,162.51695489999838,162.50130829995032,,,,,,,,,,,,,,,,,010,001,2025-05-01_00h24.21.222,Cued GoNogo Task,2024.2.4,60.20331862590803,2025-05-01 00h24.28.480621 +0200,
block/CondBlock1.xlsx,You are about to start a block of type 1 trials.,37,37,0,Go,Go,0.45,0.05,0.2,space,blue,horizontal,space,1.4278074000030756,None,space,1,0.16264310001861304,None,,,,0,0,0,0,0,37,37,37,162.51695489999838,,,,,,,,,,,,,,,,162.501678599976,162.51695489999838,163.216377499979,163.216377499979,163.71617889998015,163.69987359992228,163.70043819991406,163.71617889998015,164.16572809999343,164.365495899925,164.365495899925,164.53305109997746,space,1,0.16264310001861304,None,164.53634979994968,165.04814669990446,166.04742819990497,166.03134509990923,,,,,,,,,,,,,,,,,010,001,2025-05-01_00h24.21.222,Cued GoNogo Task,2024.2.4,60.20331862590803,2025-05-01 00h24.28.480621 +0200,
block/CondBlock1.xlsx,You are about to start a block of type 1 trials.,38,38,0,Go,Go,0.13,0.05,0.2,space,blue,horizontal,space,1.4278074000030756,None,space,1,0.1663024000590667,None,,,,0,0,0,0,0,38,38,38,166.04742819990497,,,,,,,,,,,,,,,,166.03156039991882,166.04742819990497,166.7468223000178,166.7468223000178,167.24647469993215,167.23056229995564,167.23115759994835,167.24647469993215,167.3799946999643,167.56313549994957,167.56313549994957,167.73174129996914,space,1,0.1663024000590667,None,167.7350763999857,168.24564719991758,169.2449340999592,169.22896649991162,,,,,,,,,,,,,,,,,010,001,2025-05-01_00h24.21.222,Cued GoNogo Task,2024.2.4,60.20331862590803,2025-05-01 00h24.28.480621 +0200,
block/CondBlock1.xlsx,You are about to start a block of type 1 trials.,39,39,0,Go,Go,0.46,0.2,0.05,space,blue,vertical,space,1.4278074000030756,None,space,1,0.18728479999117553,None,,,,0,0,0,0,0,39,39,39,169.2449340999592,,,,,,,,,,,,,,,,169.22919469990302,169.2449340999592,169.94418969994877,169.94418969994877,170.4438322999049,170.4279066999443,170.42859419994056,170.4438322999049,170.91003159992397,171.09319439996034,171.09319439996034,171.29466929996852,space,1,0.18728479999117553,None,171.29935609991662,171.80941250000615,172.80852319998667,172.79266259993892,,,,,,,,,,,,,,,,,010,001,2025-05-01_00h24.21.222,Cued GoNogo Task,2024.2.4,60.20331862590803,2025-05-01 00h24.28.480621 +0200,
block/CondBlock1.xlsx,You are about to start a block of type 1 trials.,40,40,0,Go,Go,0.29,0.2,0.05,space,blue,vertical,space,1.4278074000030756,None,space,1,0.14138160005677491,None,,,,0,0,0,0,0,40,40,40,172.80852319998667,,,,,,,,,,,,,,,,172.792932500015,172.80852319998667,173.50783819996286,173.50783819996286,174.00766349991318,173.99180439999327,173.99274649994913,174.00766349991318,174.30739729991183,174.49052989995107,174.49052989995107,174.64133139990736,space,1,0.14138160005677491,None,174.64476819999982,175.15665129991248,176.1557071999414,176.14006519992836,,,,,,,,,,,,,,,,,010,001,2025-05-01_00h24.21.222,Cued GoNogo Task,2024.2.4,60.20331862590803,2025-05-01 00h24.28.480621 +0200,
block/CondBlock1.xlsx,You are about to start a block of type 1 trials.,41,41,0,Go,Go,0.22,0.2,0.05,space,blue,vertical,space,1.4278074000030756,None,space,1,0.19005279999691993,None,,,,0,0,0,0,0,41,41,41,176.1557071999414,,,,,,,,,,,,,,,,176.14043449994642,176.1557071999414,176.8551870000083,176.8551870000083,177.35469599999487,177.33882830000948,177.33944719994906,177.35469599999487,177.58791180001572,177.7710576999234,177.7710576999234,177.97185669990722,space,1,0.19005279999691993,None,177.97456939995755,178.48740009998437,,179.4865389999468,,,,,,,,,,,,,,,,,010,001,2025-05-01_00h24.21.222,Cued GoNogo Task,2024.2.4,60.20331862590803,2025-05-01 00h24.28.480621 +0200,
block/CondBlock1.xlsx,You are about to start a block of type 1 trials.,42,42,0,Go,Go,0.49,0.2,0.05,space,blue,vertical,space,1.4278074000030756,None,space,1,0.18446240003686398,None,,,,0,0,0,0,0,42,42,42,179.50288909999654,,,,,,,,,,,,,,,,179.48675909999292,179.50288909999654,180.18580729991663,180.20254239998758,180.68543099996168,180.6695645999862,180.67021639994346,180.68543099996168,181.1850711000152,181.3681007999694,181.3681007999694,181.5692048999481,space,1,0.18446240003686398,None,181.5731739999028,182.0844060999807,183.08356790000107,183.06752949999645,,,,,,,,,,,,,,,,,010,001,2025-05-01_00h24.21.222,Cued GoNogo Task,2024.2.4,60.20331862590803,2025-05-01 00h24.28.480621 +0200,
block/CondBlock1.xlsx,You are about to start a block of type 1 trials.,43,43,0,Go,Go,0.2,0.2,0.05,space,blue,vertical,space,1.4278074000030756,None,space,1,0.1432194000808522,None,,,,0,0,0,0,0,43,43,43,183.08356790000107,,,,,,,,,,,,,,,,183.06783549999818,183.08356790000107,183.78287160000764,183.78287160000764,184.28243149991613,184.2664337999886,184.26704989990685,184.28243149991613,184.4822916999692,184.68204029998742,184.68204029998742,184.8330352999037,space,1,0.1432194000808522,None,184.83631279994734,185.34814279992133,186.34738229995128,186.33136419998482,,,,,,,,,,,,,,,,,010,001,2025-05-01_00h24.21.222,Cued GoNogo Task,2024.2.4,60.20331862590803,2025-05-01 00h24.28.480621 +0200,
block/CondBlock1.xlsx,You are about to start a block of type 1 trials.,44,44,0,Go,Go,0.3,0.05,0.2,space,blue,horizontal,space,1.4278074000030756,None,space,1,0.20945100008975714,None,,,,0,0,0,0,0,44,44,44,186.34738229995128,,,,,,,,,,,,,,,,186.33162249997258,186.34738229995128,187.0468071999494,187.0468071999494,187.54648399993312,187.53059729991946,187.53137479990255,187.54648399993312,187.8463263999438,188.046178999939,188.046178999939,188.26355999999214,space,1,0.20945100008975714,None,188.26765950000845,188.77900420001242,189.77799989993218,189.7622366999276,,,,,,,,,,,,,,,,,010,001,2025-05-01_00h24.21.222,Cued GoNogo Task,2024.2.4,60.20331862590803,2025-05-01 00h24.28.480621 +0200,
block/CondBlock1.xlsx,You are about to start a block of type 1 trials.,45,45,0,NoGo,NoGo,0.21,0.05,0.2,none,green,horizontal,space,1.4278074000030756,None,None,1,,,,,,0,0,0,0,0,45,45,45,189.77799989993218,,,,,,,,,,,,,,,,189.76257049990818,189.77799989993218,190.47737839992624,190.47737839992624,190.97683199995663,190.96115879993886,190.9615979999071,190.97683199995663,191.19336509995628,191.37658009992447,191.37658009992447,191.86017269990407,None,1,,,191.86247860000003,192.35923459997866,193.35833409999032,193.34293459996115,191.8763072999427,191.8763072999427,,,,,,,,,,,,,,,010,001,2025-05-01_00h24.21.222,Cued GoNogo Task,2024.2.4,60.20331862590803,2025-05-01 00h24.28.480621 +0200,
block/CondBlock1.xlsx,You are about to start a block of type 1 trials.,46,46,0,NoGo,NoGo,0.45,0.05,0.2,none,blue,horizontal,space,1.4278074000030756,None,None,1,,,,,,0,0,0,0,0,46,46,46,193.35833409999032,,,,,,,,,,,,,,,,193.3433398999041,193.37507899990305,194.0744078999851,194.0744078999851,194.57398119999561,194.55826710001566,194.55896669998765,194.57398119999561,195.02378709998447,195.2236098999856,195.2236098999856,195.70701289991848,None,1,,,195.7075111999875,196.2059297999367,197.2051383999642,197.18932289991062,195.7231851000106,195.7231851000106,,,,,,,,,,,,,,,010,001,2025-05-01_00h24.21.222,Cued GoNogo Task,2024.2.4,60.20331862590803,2025-05-01 00h24.28.480621 +0200,
block/CondBlock1.xlsx,You are about to start a block of type 1 trials.,47,47,0,Go,Go,0.24,0.05,0.2,space,green,horizontal,space,1.4278074000030756,None,space,1,0.13892649998888373,None,,,,0,0,0,0,0,47,47,47,197.2051383999642,,,,,,,,,,,,,,,,197.1896191999549,197.22181419993285,197.92108929995447,197.92108929995447,198.42074500001036,198.40492719993927,198.4054794999538,198.42074500001036,198.67060810001567,198.85364719992504,198.85364719992504,199.0045304999221,space,1,0.13892649998888373,None,199.00736789999064,199.52003959997091,200.51925719995052,200.50314469996374,,,,,,,,,,,,,,,,,010,001,2025-05-01_00h24.21.222,Cued GoNogo Task,2024.2.4,60.20331862590803,2025-05-01 00h24.28.480621 +0200,
block/CondBlock1.xlsx,You are about to start a block of type 1 trials.,48,48,0,NoGo,NoGo,0.15,0.2,0.05,none,blue,vertical,space,1.4278074000030756,None,None,1,,,,,,0,0,0,0,0,48,48,48,200.51925719995052,,,,,,,,,,,,,,,,200.50348049995955,200.51925719995052,201.21858629991766,201.21858629991766,201.7182179999072,201.70211319997907,201.70279629994184,201.7182179999072,201.8681815000018,202.06776229990646,202.06776229990646,202.55140070000198,None,1,,,202.55366969993338,203.06685339997057,204.0661968999775,204.05039330001455,202.56736719992477,202.56736719992477,,,,,,,,,,,,,,,010,001,2025-05-01_00h24.21.222,Cued GoNogo Task,2024.2.4,60.20331862590803,2025-05-01 00h24.28.480621 +0200,
block/CondBlock1.xlsx,You are about to start a block of type 1 trials.,49,49,0,Go,Go,0.12,0.05,0.2,space,blue,horizontal,space,1.4278074000030756,None,space,1,0.17103700002189726,None,,,,0,0,0,0,0,49,49,49,204.0661968999775,,,,,,,,,,,,,,,,204.05069099995308,204.0661968999775,204.76548679999541,204.76548679999541,205.26504779991228,205.24953929998446,205.25054889998864,205.26504779991228,205.39842390001286,205.58140359993558,205.58140359993558,205.76544729992747,space,1,0.17103700002189726,None,205.76927679998334,206.28106639999896,207.28009589994326,207.26458109996747,,,,,,,,,,,,,,,,,010,001,2025-05-01_00h24.21.222,Cued GoNogo Task,2024.2.4,60.20331862590803,2025-05-01 00h24.28.480621 +0200,
block/CondBlock1.xlsx,You are about to start a block of type 1 trials.,50,50,0,Go,Go,0.22,0.2,0.05,space,green,vertical,space,1.4278074000030756,None,space,1,0.16114149999339134,None,,,,0,0,0,0,0,50,50,50,207.28009589994326,,,,,,,,,,,,,,,,207.26492619991768,207.28009589994326,207.97949729999527,207.97949729999527,208.4792477999581,208.4632600999903,208.4637922999682,208.4792477999581,208.71259869995993,208.89554189995397,208.89554189995397,209.063052100013,space,1,0.16114149999339134,None,209.06582299992442,209.5782082999358,210.5774526000023,210.56149549991824,,,,,,,,,,,,,,,,,010,001,2025-05-01_00h24.21.222,Cued GoNogo Task,2024.2.4,60.20331862590803,2025-05-01 00h24.28.480621 +0200,
block/CondBlock1.xlsx,You are about to start a block of type 1 trials.,51,51,0,Go,Go,0.28,0.05,0.2,space,green,horizontal,space,1.4278074000030756,None,space,1,0.18966709997039288,None,,,,0,0,0,0,0,51,51,51,210.5774526000023,,,,,,,,,,,,,,,,210.5617823000066,210.5774526000023,211.27680369990412,211.27680369990412,211.77643369999714,211.7604925999185,211.7610770999454,211.77643369999714,212.05955429992173,212.24275480001234,212.24275480001234,212.4437572999159,space,1,0.18966709997039288,None,212.4473522999324,212.95903989998624,,213.95804589998443,,,,,,,,,,,,,,,,,010,001,2025-05-01_00h24.21.222,Cued GoNogo Task,2024.2.4,60.20331862590803,2025-05-01 00h24.28.480621 +0200,
block/CondBlock1.xlsx,You are about to start a block of type 1 trials.,52,52,0,Go,Go,0.23,0.2,0.05,space,green,vertical,space,1.4278074000030756,None,space,1,0.19527359993662685,None,,,,0,0,0,0,0,52,52,52,213.9747760000173,,,,,,,,,,,,,,,,213.9583072999958,213.9747760000173,214.65742830000818,214.67431769997347,215.1569712999044,215.1411866999697,215.14187679998577,215.1569712999044,215.39016579999588,215.57348299992736,215.57348299992736,215.7742428999627,space,1,0.19527359993662685,None,215.77717069990467,216.28959149995353,217.28864069993142,217.27281359990593,,,,,,,,,,,,,,,,,010,001,2025-05-01_00h24.21.222,Cued GoNogo Task,2024.2.4,60.20331862590803,2025-05-01 00h24.28.480621 +0200,
block/CondBlock1.xlsx,You are about to start a block of type 1 trials.,53,53,0,Go,Go,0.22,0.05,0.2,space,green,horizontal,space,1.4278074000030756,None,space,1,0.17661710001993924,None,,,,0,0,0,0,0,53,53,53,217.28864069993142,,,,,,,,,,,,,,,,217.2730709000025,217.28864069993142,217.98790519998875,217.98790519998875,218.48784640000667,218.47180069994647,218.47255959990434,218.48784640000667,218.72079689998645,218.90398489998188,218.90398489998188,219.0882809999166,space,1,0.17661710001993924,None,219.09264719998464,219.60349100001622,220.60261169995647,220.58650430000853,,,,,,,,,,,,,,,,,010,001,2025-05-01_00h24.21.222,Cued GoNogo Task,2024.2.4,60.20331862590803,2025-05-01 00h24.28.480621 +0200,
block/CondBlock1.xlsx,You are about to start a block of type 1 trials.,54,54,0,NoGo,NoGo,0.14,0.05,0.2,none,green,horizontal,space,1.4278074000030756,None,None,1,,,,,,0,0,0,0,0,54,54,54,220.60261169995647,,,,,,,,,,,,,,,,220.58680739998817,220.60261169995647,221.30195879994426,221.30195879994426,221.80159429996274,221.78642259992193,221.78719870001078,221.80159429996274,221.95154919999186,222.13462989998516,222.13462989998516,222.61834819999058,None,1,,,222.6213710999582,223.13379649992567,224.1329930999782,224.11687619995791,222.63414739992004,222.63414739992004,,,,,,,,,,,,,,,010,001,2025-05-01_00h24.21.222,Cued GoNogo Task,2024.2.4,60.20331862590803,2025-05-01 00h24.28.480621 +0200,
block/CondBlock1.xlsx,You are about to start a block of type 1 trials.,55,55,0,Go,Go,0.15,0.2,0.05,space,blue,vertical,space,1.4278074000030756,None,space,1,0.15055260004010051,None,,,,0,0,0,0,0,55,55,55,224.1329930999782,,,,,,,,,,,,,,,,224.11710949998815,224.1329930999782,224.83264549996238,224.83264549996238,225.33205019996967,225.31635819992516,225.31733819993678,225.33205019996967,225.481790299993,225.68172049999703,225.68172049999703,225.84915249992628,space,1,0.15055260004010051,None,225.8536279000109,226.36456549994182,227.36367290001363,227.34773819998372,,,,,,,,,,,,,,,,,010,001,2025-05-01_00h24.21.222,Cued GoNogo Task,2024.2.4,60.20331862590803,2025-05-01 00h24.28.480621 +0200,
block/CondBlock1.xlsx,You are about to start a block of type 1 trials.,56,56,0,Go,Go,0.47,0.2,0.05,space,blue,vertical,space,1.4278074000030756,None,space,1,0.1877250000834465,None,,,,0,0,0,0,0,56,56,56,227.36367290001363,,,,,,,,,,,,,,,,227.34801740001421,227.36367290001363,228.06321609998122,228.06321609998122,228.56278099992778,228.54729859996587,228.548322299961,228.56278099992778,229.04564849997405,229.22891089995392,229.22891089995392,229.42986249993555,space,1,0.1877250000834465,None,229.4339389000088,229.94476799992844,230.94425309996586,230.9281368999509,,,,,,,,,,,,,,,,,010,001,2025-05-01_00h24.21.222,Cued GoNogo Task,2024.2.4,60.20331862590803,2025-05-01 00h24.28.480621 +0200,
block/CondBlock1.xlsx,You are about to start a block of type 1 trials.,57,57,0,NoGo,NoGo,0.42,0.2,0.05,none,green,vertical,space,1.4278074000030756,None,None,1,,,,,,0,0,0,0,0,57,57,57,230.94425309996586,,,,,,,,,,,,,,,,230.92830229992978,230.94425309996586,231.64370939997025,231.64370939997025,232.14324439992197,232.12698950001504,232.12775559991132,232.14324439992197,232.57612849993166,232.75937380001415,232.75937380001415,233.24265229993034,None,1,,,233.2446393999271,233.74184849997982,234.7409129999578,234.72511999995913,233.25886039994657,233.25886039994657,,,,,,,,,,,,,,,010,001,2025-05-01_00h24.21.222,Cued GoNogo Task,2024.2.4,60.20331862590803,2025-05-01 00h24.28.480621 +0200,
block/CondBlock1.xlsx,You are about to start a block of type 1 trials.,58,58,0,Go,Go,0.22,0.05,0.2,space,green,horizontal,space,1.4278074000030756,None,space,1,0.25952010008040816,None,,,,0,0,0,0,0,58,58,58,234.7409129999578,,,,,,,,,,,,,,,,234.72536579996813,234.75778879993595,235.45714109996334,235.45714109996334,235.95659099996556,235.94087469996884,235.94167079997715,235.95659099996556,236.18980179994833,236.37292699993122,236.37292699993122,236.64067140000407,space,1,0.25952010008040816,None,236.64437709993217,237.15575229993556,238.15498049999587,238.13902929995675,,,,,,,,,,,,,,,,,010,001,2025-05-01_00h24.21.222,Cued GoNogo Task,2024.2.4,60.20331862590803,2025-05-01 00h24.28.480621 +0200,
block/CondBlock1.xlsx,You are about to start a block of type 1 trials.,59,59,0,Go,Go,0.3,0.2,0.05,space,blue,vertical,space,1.4278074000030756,None,space,1,0.11515029997099191,None,,,,0,0,0,0,0,59,59,59,238.15498049999587,,,,,,,,,,,,,,,,238.13948419992812,238.15498049999587,238.85425079998095,238.85425079998095,239.35385149996728,239.33768729993608,239.33821979991626,239.35385149996728,239.65372289996594,239.85338310000952,239.85338310000952,239.9725045999512,space,1,0.11515029997099191,None,239.9770978000015,240.48617629997898,241.4855754999444,241.46987429994624,,,,,,,,,,,,,,,,,010,001,2025-05-01_00h24.21.222,Cued GoNogo Task,2024.2.4,60.20331862590803,2025-05-01 00h24.28.480621 +0200,
block/CondBlock1.xlsx,You are about to start a block of type 1 trials.,60,60,0,NoGo,NoGo,0.24,0.2,0.05,none,blue,vertical,space,1.4278074000030756,None,None,1,,,,,,0,0,0,0,0,60,60,60,241.4855754999444,,,,,,,,,,,,,,,,241.47024339996278,241.4855754999444,242.18492319993675,242.18492319993675,242.68451809999533,242.6682986000087,242.66883169999346,242.68451809999533,242.93417369993404,243.11724239995237,243.11724239995237,243.6009782999754,None,1,,,243.6033631999744,244.0997006999096,245.09928149997722,245.08327950001694,243.6168632999761,243.6168632999761,,,,,,,,,,,,,,,010,001,2025-05-01_00h24.21.222,Cued GoNogo Task,2024.2.4,60.20331862590803,2025-05-01 00h24.28.480621 +0200,
block/CondBlock1.xlsx,You are about to start a block of type 1 trials.,61,61,0,NoGo,NoGo,0.1,0.2,0.05,none,green,vertical,space,1.4278074000030756,None,None,1,,,,,,0,0,0,0,0,61,61,61,245.09928149997722,,,,,,,,,,,,,,,,245.0835910999449,245.1157551999204,245.81517610000446,245.81517610000446,246.314838899998,246.29888879996724,246.29948599997442,246.314838899998,246.41472329990938,246.61449820001144,246.61449820001144,247.09839990001637,None,1,,,247.09916839993093,247.6136540999869,248.6128550999565,248.59710209991317,247.11413299990818,247.11413299990818,,,,,,,,,,,,,,,010,001,2025-05-01_00h24.21.222,Cued GoNogo Task,2024.2.4,60.20331862590803,2025-05-01 00h24.28.480621 +0200,
block/CondBlock1.xlsx,You are about to start a block of type 1 trials.,62,62,0,Go,Go,0.45,0.05,0.2,space,blue,horizontal,space,1.4278074000030756,None,space,1,0.13101970008574426,None,,,,0,0,0,0,0,62,62,62,248.6128550999565,,,,,,,,,,,,,,,,248.59737639990635,248.6128550999565,249.31228640000336,249.31228640000336,249.81190540001262,249.7958133999491,249.7963895999128,249.81190540001262,250.26149379997514,250.46142189996317,250.46142189996317,250.595968300011,space,1,0.13101970008574426,None,250.5998266999377,251.1107319999719,252.10993999999482,252.0943924000021,,,,,,,,,,,,,,,,,010,001,2025-05-01_00h24.21.222,Cued GoNogo Task,2024.2.4,60.20331862590803,2025-05-01 00h24.28.480621 +0200,
block/CondBlock1.xlsx,You are about to start a block of type 1 trials.,63,63,0,Go,Go,0.1,0.05,0.2,space,green,horizontal,space,1.4278074000030756,None,space,1,0.1835278000216931,None,,,,0,0,0,0,0,63,63,63,252.10993999999482,,,,,,,,,,,,,,,,252.09469419997185,252.10993999999482,252.80952889996115,252.80952889996115,253.30902809998952,253.29334119998384,253.29439399996772,253.30902809998952,253.40911169990432,253.6089405999519,253.6089405999519,253.80986759997904,space,1,0.1835278000216931,None,253.81371049990412,254.32494269998278,255.32406409992836,255.30841529997997,,,,,,,,,,,,,,,,,010,001,2025-05-01_00h24.21.222,Cued GoNogo Task,2024.2.4,60.20331862590803,2025-05-01 00h24.28.480621 +0200,
block/CondBlock1.xlsx,You are about to start a block of type 1 trials.,64,64,0,Go,Go,0.19,0.05,0.2,space,blue,horizontal,space,1.4278074000030756,None,space,1,0.16713009995874017,None,,,,0,0,0,0,0,64,64,64,255.32406409992836,,,,,,,,,,,,,,,,255.30871519993525,255.32406409992836,256.0234051999869,256.0234051999869,256.52310899994336,256.50721760001034,256.5080465999199,256.52310899994336,256.72292049997486,256.90628969995305,256.90628969995305,257.09042189992033,space,1,0.16713009995874017,None,257.0942637999542,257.60562799999025,258.60480139998253,258.58873959991615,,,,,,,,,,,,,,,,,010,001,2025-05-01_00h24.21.222,Cued GoNogo Task,2024.2.4,60.20331862590803,2025-05-01 00h24.28.480621 +0200,
block/CondBlock1.xlsx,You are about to start a block of type 1 trials.,65,65,0,Go,Go,0.21,0.2,0.05,space,blue,vertical,space,1.4278074000030756,None,space,1,0.13343519996851683,None,,,,0,0,0,0,0,65,65,65,258.60480139998253,,,,,,,,,,,,,,,,258.5890317999292,258.60480139998253,259.3039912999375,259.3039912999375,259.8038201999152,259.78770019998774,259.788347799913,259.8038201999152,260.0199996000156,260.20350649999455,260.20350649999455,260.3391663999064,space,1,0.13343519996851683,None,260.34251390001737,260.8527715000091,261.85208889993373,261.8364815999521,,,,,,,,,,,,,,,,,010,001,2025-05-01_00h24.21.222,Cued GoNogo Task,2024.2.4,60.20331862590803,2025-05-01 00h24.28.480621 +0200,
block/CondBlock1.xlsx,You are about to start a block of type 1 trials.,66,66,0,Go,Go,0.18,0.05,0.2,space,blue,horizontal,space,1.4278074000030756,None,space,1,0.1265626000240445,None,,,,0,0,0,0,0,66,66,66,261.85208889993373,,,,,,,,,,,,,,,,261.8367237999337,261.85208889993373,262.55155570001807,262.55155570001807,263.05099349992815,263.0354144999292,263.03630299994256,263.05099349992815,263.2342344999779,263.43374359991867,263.43374359991867,263.5683139999164,space,1,0.1265626000240445,None,263.5728706999216,264.0834212999325,265.0827188999392,265.0669026999967,,,,,,,,,,,,,,,,,010,001,2025-05-01_00h24.21.222,Cued GoNogo Task,2024.2.4,60.20331862590803,2025-05-01 00h24.28.480621 +0200,
block/CondBlock1.xlsx,You are about to start a block of type 1 trials.,67,67,0,Go,Go,0.29,0.2,0.05,space,green,vertical,space,1.4278074000030756,None,space,1,0.16357150010298938,None,,,,0,0,0,0,0,67,67,67,265.0827188999392,,,,,,,,,,,,,,,,265.06723639997654,265.0827188999392,265.78196209995076,265.78196209995076,266.28160509990994,266.2660595999332,266.26679959998,266.28160509990994,266.5815137999598,266.76458379998803,266.76458379998803,266.9323196000187,space,1,0.16357150010298938,None,266.9363584999228,267.447632299969,268.4464945999207,268.4311371999793,,,,,,,,,,,,,,,,,010,001,2025-05-01_00h24.21.222,Cued GoNogo Task,2024.2.4,60.20331862590803,2025-05-01 00h24.28.480621 +0200,
block/CondBlock1.xlsx,You are about to start a block of type 1 trials.,68,68,0,NoGo,NoGo,0.24,0.2,0.05,none,blue,vertical,space,1.4278074000030756,None,None,1,,,,,,0,0,0,0,0,68,68,68,268.4464945999207,,,,,,,,,,,,,,,,268.43146559991874,268.4464945999207,269.14608450001106,269.14608450001106,269.6456286999164,269.6297054999741,269.6302428999916,269.6456286999164,269.8954604999162,270.07852169999387,270.07852169999387,270.5621120999567,None,1,,,270.5648242000025,271.0776243999135,272.0769770999905,272.0609596999129,270.5781450999202,270.5781450999202,,,,,,,,,,,,,,,010,001,2025-05-01_00h24.21.222,Cued GoNogo Task,2024.2.4,60.20331862590803,2025-05-01 00h24.28.480621 +0200,
block/CondBlock1.xlsx,You are about to start a block of type 1 trials.,69,69,0,Go,Go,0.27,0.05,0.2,space,green,horizontal,space,1.4278074000030756,None,space,1,0.12998999992851168,None,,,,0,0,0,0,0,69,69,69,272.0769770999905,,,,,,,,,,,,,,,,272.0612055999227,272.0769770999905,272.7762841999065,272.7762841999065,273.27579979994334,273.2600727999816,273.2606700999895,273.27579979994334,273.5590210999362,273.74216639995575,273.74216639995575,273.8766281999415,space,1,0.12998999992851168,None,273.87999249994755,274.3918861999409,,275.3912137999432,,,,,,,,,,,,,,,,,010,001,2025-05-01_00h24.21.222,Cued GoNogo Task,2024.2.4,60.20331862590803,2025-05-01 00h24.28.480621 +0200,
block/CondBlock1.xlsx,You are about to start a block of type 1 trials.,70,70,0,Go,Go,0.25,0.2,0.05,space,green,vertical,space,1.4278074000030756,None,space,1,0.09704310004599392,None,,,,0,0,0,0,0,70,70,70,275.4075490999967,,,,,,,,,,,,,,,,275.3915438000113,275.4075490999967,276.0903590999078,276.1070660999976,276.589684400009,276.57409539993387,276.5748555000173,276.589684400009,276.8396773999557,277.03952190000564,277.03952190000564,277.1403941999888,space,1,0.09704310004599392,None,277.1435200999258,277.65565999993123,278.654895799933,278.6391445999034,,,,,,,,,,,,,,,,,010,001,2025-05-01_00h24.21.222,Cued GoNogo Task,2024.2.4,60.20331862590803,2025-05-01 00h24.28.480621 +0200,
block/CondBlock1.xlsx,You are about to start a block of type 1 trials.,71,71,0,Go,Go,0.28,0.05,0.2,space,green,horizontal,space,1.4278074000030756,None,space,1,0.16024850006215274,None,,,,0,0,0,0,0,71,71,71,278.654895799933,,,,,,,,,,,,,,,,278.63942819996737,278.654895799933,279.35423079994507,279.35423079994507,279.8538429000182,279.83876810001675,279.83962029998656,279.8538429000182,280.1368892999599,280.32028210000135,280.32028210000135,280.4879173999652,space,1,0.16024850006215274,None,280.4920112999389,281.0029813000001,282.0021206999663,281.98621699993964,,,,,,,,,,,,,,,,,010,001,2025-05-01_00h24.21.222,Cued GoNogo Task,2024.2.4,60.20331862590803,2025-05-01 00h24.28.480621 +0200,
block/CondBlock1.xlsx,You are about to start a block of type 1 trials.,72,72,0,Go,Go,0.14,0.05,0.2,space,blue,horizontal,space,1.4278074000030756,None,space,1,0.15436559997033328,None,,,,0,0,0,0,0,72,72,72,282.0021206999663,,,,,,,,,,,,,,,,281.98644879995845,282.0021206999663,282.70149359991774,282.70149359991774,283.20113780000247,283.1850143999327,283.1855633999221,283.20113780000247,283.35113259998616,283.53416339994874,283.53416339994874,283.7018605999183,space,1,0.15436559997033328,None,283.70577549992595,284.2168661999749,285.2160369999474,285.20040999993216,,,,,,,,,,,,,,,,,010,001,2025-05-01_00h24.21.222,Cued GoNogo Task,2024.2.4,60.20331862590803,2025-05-01 00h24.28.480621 +0200,
block/CondBlock1.xlsx,You are about to start a block of type 1 trials.,73,73,0,Go,Go,0.11,0.05,0.2,space,blue,horizontal,space,1.4278074000030756,None,space,1,0.26981890003662556,None,,,,0,0,0,0,0,73,73,73,285.2160369999474,,,,,,,,,,,,,,,,285.20072259998415,285.2160369999474,285.9155485999072,285.9155485999072,286.41502349998336,286.39907409995794,286.39966939995065,286.41502349998336,286.5315070999786,286.71471369999927,286.71471369999927,286.9988939999603,space,1,0.26981890003662556,None,287.00281510001514,287.51424709998537,288.513279399951,288.4976533999434,,,,,,,,,,,,,,,,,010,001,2025-05-01_00h24.21.222,Cued GoNogo Task,2024.2.4,60.20331862590803,2025-05-01 00h24.28.480621 +0200,
block/CondBlock1.xlsx,You are about to start a block of type 1 trials.,74,74,0,Go,Go,0.22,0.2,0.05,space,blue,vertical,space,1.4278074000030756,None,space,1,0.13514260004740208,None,,,,0,0,0,0,0,74,74,74,288.513279399951,,,,,,,,,,,,,,,,288.49798669992015,288.513279399951,289.2127474999288,289.2127474999288,289.71244469995145,289.6969505000161,289.6976968999952,289.71244469995145,289.9455585000105,290.12876919994596,290.12876919994596,290.2797198999906,space,1,0.13514260004740208,None,290.2837521999609,290.7948172999313,291.7939541999949,291.77840079995804,,,,,,,,,,,,,,,,,010,001,2025-05-01_00h24.21.222,Cued GoNogo Task,2024.2.4,60.20331862590803,2025-05-01 00h24.28.480621 +0200,
block/CondBlock1.xlsx,You are about to start a block of type 1 trials.,75,75,0,Go,Go,0.26,0.05,0.2,space,blue,horizontal,space,1.4278074000030756,None,space,1,0.1504537999862805,None,,,,0,0,0,0,0,75,75,75,291.7939541999949,,,,,,,,,,,,,,,,291.77880719990935,291.7939541999949,292.4935837999219,292.4935837999219,292.99303699994925,292.9771062999498,292.97780110000167,292.99303699994925,293.2594876999501,293.4426589999348,293.4426589999348,293.5954437999753,space,1,0.1504537999862805,None,293.5997953999322,294.1089012000011,295.10798959992826,295.09204789996147,,,,,,,,,,,,,,,,,010,001,2025-05-01_00h24.21.222,Cued GoNogo Task,2024.2.4,60.20331862590803,2025-05-01 00h24.28.480621 +0200,
block/CondBlock1.xlsx,You are about to start a block of type 1 trials.,76,76,0,Go,Go,0.14,0.2,0.05,space,green,vertical,space,1.4278074000030756,None,space,1,0.16819090000353754,None,,,,0,0,0,0,0,76,76,76,295.10798959992826,,,,,,,,,,,,,,,,295.09231340000406,295.10798959992826,295.8072780999355,295.8072780999355,296.3070491999388,296.2912150999764,296.29166899994016,296.3070491999388,296.4570640999591,296.64008019992616,296.64008019992616,296.8242709999904,space,1,0.16819090000353754,None,296.82850179995876,297.3394951999653,298.3385355999926,298.323134199949,,,,,,,,,,,,,,,,,010,001,2025-05-01_00h24.21.222,Cued GoNogo Task,2024.2.4,60.20331862590803,2025-05-01 00h24.28.480621 +0200,
block/CondBlock1.xlsx,You are about to start a block of type 1 trials.,77,77,0,Go,Go,0.18,0.05,0.2,space,green,horizontal,space,1.4278074000030756,None,space,1,0.2081036000745371,None,,,,0,0,0,0,0,77,77,77,298.3385355999926,,,,,,,,,,,,,,,,298.32343360001687,298.3385355999926,299.03809990000445,299.03809990000445,299.53766549995635,299.5223900999408,299.5230491999537,299.53766549995635,299.7210094999755,299.90399949997663,299.90399949997663,300.1217594000045,space,1,0.2081036000745371,None,300.1261319000041,300.6367302999133,301.63584020000417,301.62024710001424,,,,,,,,,,,,,,,,,010,001,2025-05-01_00h24.21.222,Cued GoNogo Task,2024.2.4,60.20331862590803,2025-05-01 00h24.28.480621 +0200,
block/CondBlock1.xlsx,You are about to start a block of type 1 trials.,78,78,0,NoGo,NoGo,0.27,0.05,0.2,none,blue,horizontal,space,1.4278074000030756,None,None,1,,,,,,0,0,0,0,0,78,78,78,301.63584020000417,,,,,,,,,,,,,,,,301.62057979998644,301.63584020000417,302.33538369997405,302.33538369997405,302.8349737999961,302.81898169999477,302.8195523999166,302.8349737999961,303.1180813999381,303.30132470000535,303.30132470000535,303.7847645999864,None,1,,,303.78721819992643,304.30042119999416,305.2996626999229,305.28361749998294,303.80093869997654,303.80093869997654,,,,,,,,,,,,,,,010,001,2025-05-01_00h24.21.222,Cued GoNogo Task,2024.2.4,60.20331862590803,2025-05-01 00h24.28.480621 +0200,
block/CondBlock1.xlsx,You are about to start a block of type 1 trials.,79,79,0,NoGo,NoGo,0.26,0.2,0.05,none,blue,vertical,space,1.4278074000030756,None,None,1,,,,,,0,0,0,0,0,79,79,79,305.2996626999229,,,,,,,,,,,,,,,,305.2839576000115,305.2996626999229,305.99890669994056,305.99890669994056,306.4985323000001,306.48266340000555,306.4833723999327,306.4985323000001,306.76498249999713,306.94828589993995,306.94828589993995,307.4318094999762,None,1,,,307.43226299993694,307.94742479990236,,308.9467983999057,307.4477229999611,307.4477229999611,,,,,,,,,,,,,,,010,001,2025-05-01_00h24.21.222,Cued GoNogo Task,2024.2.4,60.20331862590803,2025-05-01 00h24.28.480621 +0200,
block/CondBlock1.xlsx,You are about to start a block of type 1 trials.,80,80,0,Go,Go,0.22,0.2,0.05,space,green,vertical,space,1.4278074000030756,None,space,1,0.10172549996059388,None,,,,0,0,0,0,0,80,80,80,308.9633529999992,,,,,,,,,,,,,,,,308.947128699976,308.9633529999992,309.64601749996655,309.66271439997945,310.1456181999529,310.12969799991697,310.1303796999855,310.1456181999529,310.37870429991744,310.56199919991195,310.56199919991195,310.6794496999355,space,1,0.10172549996059388,None,310.68433179997373,311.1948423999129,,312.1940748000052,,,,,,,,,,,,,,,,,010,001,2025-05-01_00h24.21.222,Cued GoNogo Task,2024.2.4,60.20331862590803,2025-05-01 00h24.28.480621 +0200,
block/CondBlock1.xlsx,You are about to start a block of type 1 trials.,81,81,0,Go,Go,0.5,0.2,0.05,space,green,vertical,space,1.4278074000030756,None,space,1,0.16467829991597682,None,,,,0,0,0,0,0,81,81,81,312.2106381999329,,,,,,,,,,,,,,,,312.1943474999862,312.2106381999329,312.893372099963,312.9101241999306,313.39275939995423,313.37688130000606,313.37728469993453,313.39275939995423,313.8924326999113,314.09230949997436,314.09230949997436,314.259937099996,space,1,0.16467829991597682,None,314.26317679998465,314.77513309998903,315.77421559998766,315.75841339991894,,,,,,,,,,,,,,,,,010,001,2025-05-01_00h24.21.222,Cued GoNogo Task,2024.2.4,60.20331862590803,2025-05-01 00h24.28.480621 +0200,
block/CondBlock1.xlsx,You are about to start a block of type 1 trials.,82,82,0,Go,Go,0.43,0.05,0.2,space,green,horizontal,space,1.4278074000030756,None,space,1,0.26652279996778816,None,,,,0,0,0,0,0,82,82,82,315.77421559998766,,,,,,,,,,,,,,,,315.7586605999386,315.77421559998766,316.47369229991455,316.47369229991455,316.9733680000063,316.95742689992767,316.95816979999654,316.9733680000063,317.40649999992456,317.58962679991964,317.58962679991964,317.8582228999585,space,1,0.26652279996778816,None,317.864892099984,318.3724975999212,319.3713832999347,319.35602309997194,,,,,,,,,,,,,,,,,010,001,2025-05-01_00h24.21.222,Cued GoNogo Task,2024.2.4,60.20331862590803,2025-05-01 00h24.28.480621 +0200,
block/CondBlock1.xlsx,You are about to start a block of type 1 trials.,83,83,0,Go,Go,0.25,0.2,0.05,space,green,vertical,space,1.4278074000030756,None,space,1,0.15754480008035898,None,,,,0,0,0,0,0,83,83,83,319.3713832999347,,,,,,,,,,,,,,,,319.35647009999957,319.3713832999347,320.0708873999538,320.0708873999538,320.57020600000396,320.5542304000119,320.5548302999232,320.57020600000396,320.8200982999988,321.0198766000103,321.0198766000103,321.18785380001646,space,1,0.15754480008035898,None,321.1918475999264,321.70295569999143,322.70206489996053,322.6860505999066,,,,,,,,,,,,,,,,,010,001,2025-05-01_00h24.21.222,Cued GoNogo Task,2024.2.4,60.20331862590803,2025-05-01 00h24.28.480621 +0200,
block/CondBlock1.xlsx,You are about to start a block of type 1 trials.,84,84,0,NoGo,NoGo,0.14,0.2,0.05,none,green,vertical,space,1.4278074000030756,None,None,1,,,,,,0,0,0,0,0,84,84,84,322.70206489996053,,,,,,,,,,,,,,,,322.6863170999568,322.70206489996053,323.40146239998285,323.40146239998285,323.9009563999716,323.88500219990965,323.8855942999944,323.9009563999716,324.0510119999526,324.2339871999575,324.2339871999575,324.7177558999974,None,1,,,324.720107799978,325.23324959992897,326.2324531999184,326.2163419999415,324.73353089997545,324.73353089997545,,,,,,,,,,,,,,,010,001,2025-05-01_00h24.21.222,Cued GoNogo Task,2024.2.4,60.20331862590803,2025-05-01 00h24.28.480621 +0200,
block/CondBlock1.xlsx,You are about to start a block of type 1 trials.,85,85,0,Go,Go,0.2,0.05,0.2,space,blue,horizontal,space,1.4278074000030756,None,space,1,0.14504620002117008,None,,,,0,0,0,0,0,85,85,85,326.2324531999184,,,,,,,,,,,,,,,,326.21659909992013,326.2324531999184,326.931649099919,326.931649099919,327.43138179997914,327.4152755999239,327.4159922999097,327.43138179997914,327.63126729999203,327.83098510000855,327.83098510000855,327.9819545999635,space,1,0.14504620002117008,None,327.9855728999246,328.4973205999704,329.49666069995146,329.4804140999913,,,,,,,,,,,,,,,,,010,001,2025-05-01_00h24.21.222,Cued GoNogo Task,2024.2.4,60.20331862590803,2025-05-01 00h24.28.480621 +0200,
block/CondBlock1.xlsx,You are about to start a block of type 1 trials.,86,86,0,Go,Go,0.16,0.2,0.05,space,blue,vertical,space,1.4278074000030756,None,space,1,0.18747080001048744,None,,,,0,0,0,0,0,86,86,86,329.49666069995146,,,,,,,,,,,,,,,,329.4806965999305,329.49666069995146,330.196817799937,330.196817799937,,330.6955970999552,330.69617829995696,330.7120435999241,330.8785268999636,331.04522369999904,331.04522369999904,331.2464450999396,space,1,0.18747080001048744,None,331.250899799983,331.7611096999608,332.76032949995715,332.7446080999216,,,,,,,,,,,,,,,,,010,001,2025-05-01_00h24.21.222,Cued GoNogo Task,2024.2.4,60.20331862590803,2025-05-01 00h24.28.480621 +0200,
block/CondBlock1.xlsx,You are about to start a block of type 1 trials.,87,87,0,Go,Go,0.41,0.2,0.05,space,green,vertical,space,1.4278074000030756,None,space,1,0.16183200001250952,None,,,,0,0,0,0,0,87,87,87,332.76032949995715,,,,,,,,,,,,,,,,332.74484970001504,332.76032949995715,333.4597358999308,333.4597358999308,333.95934830000624,333.94313779997174,333.94366039999295,333.95934830000624,334.37581739993766,334.5587924999418,334.5587924999418,334.72684000001755,space,1,0.16183200001250952,None,334.7332907000091,335.2417080999585,336.24087709991727,336.22478879999835,,,,,,,,,,,,,,,,,010,001,2025-05-01_00h24.21.222,Cued GoNogo Task,2024.2.4,60.20331862590803,2025-05-01 00h24.28.480621 +0200,
block/CondBlock1.xlsx,You are about to start a block of type 1 trials.,88,88,0,NoGo,NoGo,0.15,0.2,0.05,none,green,vertical,space,1.4278074000030756,None,None,1,,,,,,0,0,0,0,0,88,88,88,336.24087709991727,,,,,,,,,,,,,,,,336.225008499925,336.24087709991727,336.94033909996506,336.94033909996506,337.43972619995475,337.42415599990636,337.4249659999041,337.43972619995475,337.58979649993125,337.7895533000119,337.7895533000119,338.27302319998853,None,1,,,338.27497519995086,338.7719639999559,339.7711952999234,339.7555369999027,338.2892165000085,338.2892165000085,,,,,,,,,,,,,,,010,001,2025-05-01_00h24.21.222,Cued GoNogo Task,2024.2.4,60.20331862590803,2025-05-01 00h24.28.480621 +0200,
block/CondBlock1.xlsx,You are about to start a block of type 1 trials.,89,89,0,Go,Go,0.24,0.05,0.2,space,blue,horizontal,space,1.4278074000030756,None,space,1,0.22787249996326864,None,,,,0,0,0,0,0,89,89,89,339.7711952999234,,,,,,,,,,,,,,,,339.75583099992946,339.78799250000156,340.4872977999039,340.4872977999039,340.98694809991866,340.9709433999378,340.9715487000067,340.98694809991866,341.2366028999677,341.41992769995704,341.41992769995704,341.65406209998764,space,1,0.22787249996326864,None,341.65830359992106,342.169182099984,343.1684183999896,343.15231119992677,,,,,,,,,,,,,,,,,010,001,2025-05-01_00h24.21.222,Cued GoNogo Task,2024.2.4,60.20331862590803,2025-05-01 00h24.28.480621 +0200,
block/CondBlock1.xlsx,You are about to start a block of type 1 trials.,90,90,0,Go,Go,0.25,0.2,0.05,space,blue,vertical,space,1.4278074000030756,None,space,1,0.32760149997193366,None,,,,0,0,0,0,0,90,90,90,343.1684183999896,,,,,,,,,,,,,,,,343.1525085999165,343.1684183999896,343.86797929997556,343.86797929997556,344.3673346999567,344.3516426999122,344.35233539994806,344.3673346999567,344.61716429993976,344.81722470000386,344.81722470000386,345.15132959990297,space,1,0.32760149997193366,None,345.1555928000016,345.6665869000135,346.6655516999308,346.64975330000743,,,,,,,,,,,,,,,,,010,001,2025-05-01_00h24.21.222,Cued GoNogo Task,2024.2.4,60.20331862590803,2025-05-01 00h24.28.480621 +0200,
block/CondBlock1.xlsx,You are about to start a block of type 1 trials.,91,91,0,Go,Go,0.26,0.05,0.2,space,green,horizontal,space,1.4278074000030756,None,space,1,0.1746722999960184,None,,,,0,0,0,0,0,91,91,91,346.6655516999308,,,,,,,,,,,,,,,,346.6500715999864,346.6655516999308,347.3649613999296,347.3649613999296,347.8646684999112,347.84843459993135,347.84900219994597,347.8646684999112,348.1309653999051,348.31436349998694,348.31436349998694,348.49867719993927,space,1,0.1746722999960184,None,348.502500899951,349.0134948999621,350.0127336999867,349.9976075999439,,,,,,,,,,,,,,,,,010,001,2025-05-01_00h24.21.222,Cued GoNogo Task,2024.2.4,60.20331862590803,2025-05-01 00h24.28.480621 +0200,
block/CondBlock1.xlsx,You are about to start a block of type 1 trials.,92,92,0,NoGo,NoGo,0.44,0.2,0.05,none,blue,vertical,space,1.4278074000030756,None,None,1,,,,,,0,0,0,0,0,92,92,92,350.0127336999867,,,,,,,,,,,,,,,,349.9980748000089,350.0127336999867,350.7120610999409,350.7120610999409,351.2118745999178,351.1958110999549,351.19651099992916,351.2118745999178,351.6613460999215,351.8446740999352,351.8446740999352,352.3285442999331,None,1,,,352.33222689991817,352.84390869992785,353.84291569993366,353.82694689999335,352.3441910999827,352.3441910999827,,,,,,,,,,,,,,,010,001,2025-05-01_00h24.21.222,Cued GoNogo Task,2024.2.4,60.20331862590803,2025-05-01 00h24.28.480621 +0200,
block/CondBlock1.xlsx,You are about to start a block of type 1 trials.,93,93,0,Go,Go,0.13,0.2,0.05,space,green,vertical,space,1.4278074000030756,None,space,1,0.2102549000410363,None,,,,0,0,0,0,0,93,93,93,353.84291569993366,,,,,,,,,,,,,,,,353.8271073999349,353.84291569993366,354.54231869999785,354.54231869999785,355.04182219994254,355.02586209995206,355.02632269996684,355.04182219994254,355.1752624999499,355.3584680999629,355.3584680999629,355.5761932999594,space,1,0.2102549000410363,None,355.57984619995113,356.091127499938,357.09050879999995,357.07444339990616,,,,,,,,,,,,,,,,,010,001,2025-05-01_00h24.21.222,Cued GoNogo Task,2024.2.4,60.20331862590803,2025-05-01 00h24.28.480621 +0200,
block/CondBlock1.xlsx,You are about to start a block of type 1 trials.,94,94,0,Go,Go,0.44,0.05,0.2,space,blue,horizontal,space,1.4278074000030756,None,space,1,0.31097149988636374,None,,,,0,0,0,0,0,94,94,94,357.09050879999995,,,,,,,,,,,,,,,,357.0747170000104,357.09050879999995,357.7896143000107,357.7896143000107,358.28951719996985,358.2734340999741,358.2740601999685,358.28951719996985,358.7391205999302,358.92234319995623,358.92234319995623,359.2397706999909,space,1,0.31097149988636374,None,359.24382589990273,359.75471409992315,360.75382460001856,360.73807309998665,,,,,,,,,,,,,,,,,010,001,2025-05-01_00h24.21.222,Cued GoNogo Task,2024.2.4,60.20331862590803,2025-05-01 00h24.28.480621 +0200,
block/CondBlock1.xlsx,You are about to start a block of type 1 trials.,95,95,0,Go,Go,0.15,0.2,0.05,space,green,vertical,space,1.4278074000030756,None,space,1,0.19287699996493757,None,,,,0,0,0,0,0,95,95,95,360.75382460001856,,,,,,,,,,,,,,,,360.7383433999494,360.75382460001856,361.4535896999296,361.4535896999296,361.95289459999185,361.93749649997335,361.9381563999923,361.95289459999185,362.10286679991987,362.3028889999259,362.3028889999259,362.5038203999866,space,1,0.19287699996493757,None,362.5085138999857,363.01901859999634,364.0179421999492,364.0025144999381,,,,,,,,,,,,,,,,,010,001,2025-05-01_00h24.21.222,Cued GoNogo Task,2024.2.4,60.20331862590803,2025-05-01 00h24.28.480621 +0200,
block/CondBlock1.xlsx,You are about to start a block of type 1 trials.,96,96,0,Go,Go,0.49,0.2,0.05,space,green,vertical,space,1.4278074000030756,None,space,1,0.19747949996963143,None,,,,0,0,0,0,0,96,96,96,364.0179421999492,,,,,,,,,,,,,,,,364.0028155000182,364.0179421999492,364.7174433999462,364.7174433999462,365.21704229991883,365.2007586999098,365.20128429995384,365.21704229991883,365.71661639993545,365.89988209994044,365.89988209994044,366.10115539992694,space,1,0.19747949996963143,None,366.1055038999766,366.61578150000423,367.61486919992603,367.5989896999672,,,,,,,,,,,,,,,,,010,001,2025-05-01_00h24.21.222,Cued GoNogo Task,2024.2.4,60.20331862590803,2025-05-01 00h24.28.480621 +0200,
block/CondBlock1.xlsx,You are about to start a block of type 1 trials.,97,97,0,Go,Go,0.11,0.2,0.05,space,blue,vertical,space,1.4278074000030756,None,space,1,0.19986469997093081,None,,,,0,0,0,0,0,97,97,97,367.61486919992603,,,,,,,,,,,,,,,,367.599287299905,367.61486919992603,368.3144638999365,368.3144638999365,368.81408329994883,368.79819309990853,368.79879689996596,368.81408329994883,368.93063009995967,369.113642900018,369.113642900018,369.3152786999708,space,1,0.19986469997093081,None,369.3184779000003,369.82996409991756,370.8289044999983,370.8129063999513,,,,,,,,,,,,,,,,,010,001,2025-05-01_00h24.21.222,Cued GoNogo Task,2024.2.4,60.20331862590803,2025-05-01 00h24.28.480621 +0200,
block/CondBlock1.xlsx,You are about to start a block of type 1 trials.,98,98,0,Go,Go,0.26,0.05,0.2,space,green,horizontal,space,1.4278074000030756,None,space,1,0.1478429000126198,None,,,,0,0,0,0,0,98,98,98,370.8289044999983,,,,,,,,,,,,,,,,370.81310759996995,370.8289044999983,371.5285611000145,371.5285611000145,372.027906699921,372.0123031999683,372.01308079995215,372.027906699921,372.29448239994235,372.47759549994953,372.47759549994953,372.6293943999335,space,1,0.1478429000126198,None,372.63494089990854,373.14371789991856,374.1429041000083,374.1269267000025,,,,,,,,,,,,,,,,,010,001,2025-05-01_00h24.21.222,Cued GoNogo Task,2024.2.4,60.20331862590803,2025-05-01 00h24.28.480621 +0200,
block/CondBlock1.xlsx,You are about to start a block of type 1 trials.,99,99,0,Go,Go,0.28,0.05,0.2,space,green,horizontal,space,1.4278074000030756,None,space,1,0.14421759999822825,None,,,,0,0,0,0,0,99,99,99,374.1429041000083,,,,,,,,,,,,,,,,374.12718349997886,374.1429041000083,374.84253819996957,374.84253819996957,375.34196829993743,375.32641879993025,375.32703229994513,375.34196829993743,375.6252455000067,375.82494019996375,375.82494019996375,375.9758773999056,space,1,0.14421759999822825,None,375.9795167999109,376.4910177999409,377.4909235999221,377.47437539999373,,,,,,,,,,,,,,,,,010,001,2025-05-01_00h24.21.222,Cued GoNogo Task,2024.2.4,60.20331862590803,2025-05-01 00h24.28.480621 +0200,
block/CondBlock1.xlsx,You are about to start a block of type 1 trials.,0,0,0,,,,,,,,,space,1.4278074000030756,None,,,,,space,0.5902909999713302,None,0,0,0,0,,,,,,,,,,,,,,,,,,,,,,,,,,,,,,,,,,,,,,,,,,,377.48815999994986,377.4909235999221,377.4909235999221,378.09082189993933,space,0.5902909999713302,None,,,,,,,,010,001,2025-05-01_00h24.21.222,Cued GoNogo Task,2024.2.4,60.20331862590803,2025-05-01 00h24.28.480621 +0200,
block/CondBlock2.xlsx,You are about to start a block of type 2 trials.,0,0,0,Go,Go,0.18,0.05,0.2,space,green,horizontal,space,251.78951030003373,None,space,1,0.4402600999455899,None,,,,0,1,1,1,0,0,0,0,629.9218927000184,,,,,,,,,378.09464759996627,378.1066596999299,378.1066596999299,629.9008819999872,space,251.78951030003373,None,629.9196834999602,629.9218927000184,630.6153548000148,630.6321591999149,631.1150092999451,631.0994758999441,631.1006300000008,631.1150092999451,631.2982729999349,631.4815769999987,631.4815769999987,631.9321778999874,space,1,0.4402600999455899,None,631.936578999972,632.4473591999849,633.4464507999364,633.4309405999957,,,,,,,,,,,,,,,,,010,001,2025-05-01_00h24.21.222,Cued GoNogo Task,2024.2.4,60.20331862590803,2025-05-01 00h24.28.480621 +0200,
block/CondBlock2.xlsx,You are about to start a block of type 2 trials.,1,1,0,Go,Go,0.2,0.2,0.05,space,green,vertical,space,251.78951030003373,None,space,1,0.132038600044325,None,,,,0,1,1,1,0,1,1,1,633.4464507999364,,,,,,,,,,,,,,,,633.4313825999852,633.4464507999364,634.1458950999659,634.1458950999659,634.6455923999893,634.6292552999221,634.6297358999727,634.6455923999893,634.8451057999628,635.045052499976,635.045052499976,635.1798581000185,space,1,0.132038600044325,None,635.1840642999159,635.6945407999447,636.6936483000172,636.6779997999547,,,,,,,,,,,,,,,,,010,001,2025-05-01_00h24.21.222,Cued GoNogo Task,2024.2.4,60.20331862590803,2025-05-01 00h24.28.480621 +0200,
block/CondBlock2.xlsx,You are about to start a block of type 2 trials.,2,2,0,Go,Go,0.22,0.05,0.2,space,blue,horizontal,space,251.78951030003373,None,space,1,0.1632613999536261,None,,,,0,1,1,1,0,2,2,2,636.6936483000172,,,,,,,,,,,,,,,,636.678267100011,636.6936483000172,637.3931871999521,637.3931871999521,637.8927853999194,637.8764885999262,637.8769965999527,637.8927853999194,638.1258178999415,638.309598099906,638.309598099906,638.4770755999489,space,1,0.1632613999536261,None,638.4809360000072,638.9918075000169,639.9910295999143,639.9750930999871,,,,,,,,,,,,,,,,,010,001,2025-05-01_00h24.21.222,Cued GoNogo Task,2024.2.4,60.20331862590803,2025-05-01 00h24.28.480621 +0200,
block/CondBlock2.xlsx,You are about to start a block of type 2 trials.,3,3,0,Go,Go,0.14,0.05,0.2,space,green,horizontal,space,251.78951030003373,None,space,1,0.18971199996303767,None,,,,0,1,1,1,0,3,3,3,639.9910295999143,,,,,,,,,,,,,,,,639.9753560000099,639.9910295999143,640.6904020999791,640.6904020999791,641.1901492999168,641.1739466999425,641.1745862999232,641.1901492999168,641.3398358999984,641.5229699999327,641.5229699999327,641.7237839999143,space,1,0.18971199996303767,None,641.7279066999909,642.23917169997,643.2384200999513,643.2223924999125,,,,,,,,,,,,,,,,,010,001,2025-05-01_00h24.21.222,Cued GoNogo Task,2024.2.4,60.20331862590803,2025-05-01 00h24.28.480621 +0200,
block/CondBlock2.xlsx,You are about to start a block of type 2 trials.,4,4,0,Go,Go,0.26,0.05,0.2,space,blue,horizontal,space,251.78951030003373,None,space,1,0.15369529998861253,None,,,,0,1,1,1,0,4,4,4,643.2384200999513,,,,,,,,,,,,,,,,643.222684099921,643.2384200999513,643.9378995000152,643.9378995000152,644.4373307999922,644.4213317999383,644.4220460999059,644.4373307999922,644.7036439999938,644.8870359999128,644.8870359999128,645.0552422999172,space,1,0.15369529998861253,None,645.0589124999242,645.5697088999441,646.5688795999158,646.55289609998,,,,,,,,,,,,,,,,,010,001,2025-05-01_00h24.21.222,Cued GoNogo Task,2024.2.4,60.20331862590803,2025-05-01 00h24.28.480621 +0200,
block/CondBlock2.xlsx,You are about to start a block of type 2 trials.,5,5,0,Go,Go,0.1,0.05,0.2,space,blue,horizontal,space,251.78951030003373,None,space,1,0.1169153000228107,None,,,,0,1,1,1,0,5,5,5,646.5688795999158,,,,,,,,,,,,,,,,646.553164599929,646.5688795999158,647.2683825999266,647.2683825999266,647.7678703999845,647.7522009999957,647.7529369000113,647.7678703999845,647.8679581999313,648.0676395999035,648.0676395999035,648.186643699999,space,1,0.1169153000228107,None,648.1903912000125,648.7004088999238,649.6997726999689,649.6838235999458,,,,,,,,,,,,,,,,,010,001,2025-05-01_00h24.21.222,Cued GoNogo Task,2024.2.4,60.20331862590803,2025-05-01 00h24.28.480621 +0200,
block/CondBlock2.xlsx,You are about to start a block of type 2 trials.,6,6,0,NoGo,NoGo,0.3,0.2,0.05,none,green,vertical,space,251.78951030003373,None,None,1,,,,,,0,1,1,1,0,6,6,6,649.6997726999689,,,,,,,,,,,,,,,,649.6841504999902,649.6997726999689,650.399037099909,650.399037099909,650.8987165999133,650.8831464999821,650.8837182999123,650.8987165999133,651.1984912999906,651.3985280999914,651.3985280999914,651.881703699939,None,1,,,651.8839603000088,652.3809288999764,653.3799613999436,653.3643496999284,651.8976795999333,651.8976795999333,,,,,,,,,,,,,,,010,001,2025-05-01_00h24.21.222,Cued GoNogo Task,2024.2.4,60.20331862590803,2025-05-01 00h24.28.480621 +0200,
block/CondBlock2.xlsx,You are about to start a block of type 2 trials.,7,7,0,NoGo,NoGo,0.14,0.05,0.2,none,blue,horizontal,space,251.78951030003373,None,None,1,,,,,,0,1,1,1,0,7,7,7,653.3799613999436,,,,,,,,,,,,,,,,653.3646949999966,653.3967921999283,654.0963132999605,654.0963132999605,654.5955356999766,654.5799620999023,654.5806211999152,654.5955356999766,654.7455830000108,654.9286106999498,654.9286106999498,655.4122294000117,None,1,,,655.412669399986,655.9110410999274,656.9104410000145,656.8945185999619,655.4283666999545,655.4283666999545,,,,,,,,,,,,,,,010,001,2025-05-01_00h24.21.222,Cued GoNogo Task,2024.2.4,60.20331862590803,2025-05-01 00h24.28.480621 +0200,
block/CondBlock2.xlsx,You are about to start a block of type 2 trials.,8,8,0,Go,Go,0.13,0.2,0.05,space,blue,vertical,space,251.78951030003373,None,space,1,0.24678159994073212,None,,,,0,1,1,1,0,8,8,8,656.9104410000145,,,,,,,,,,,,,,,,656.8948367999401,656.9270554999821,657.626471699914,657.626471699914,658.1259537999285,658.110190599924,658.1108977999538,658.1259537999285,658.2592409999343,658.4423543999437,658.4423543999437,658.6933736999054,space,1,0.24678159994073212,None,658.6968495999463,659.2085461999523,660.2077478999272,660.1916995999636,,,,,,,,,,,,,,,,,010,001,2025-05-01_00h24.21.222,Cued GoNogo Task,2024.2.4,60.20331862590803,2025-05-01 00h24.28.480621 +0200,
block/CondBlock2.xlsx,You are about to start a block of type 2 trials.,9,9,0,Go,Go,0.43,0.2,0.05,space,green,vertical,space,251.78951030003373,None,space,1,0.14581150002777576,None,,,,0,1,1,1,0,9,9,9,660.2077478999272,,,,,,,,,,,,,,,,660.1919360000174,660.2077478999272,660.9070018999046,660.9070018999046,661.4066114999587,661.3906849999912,661.3911173999077,661.4066114999587,661.8396094999043,662.0227765999734,662.0227765999734,662.1739740999183,space,1,0.14581150002777576,None,662.1787766999332,662.6890853999648,663.6882504000096,663.6724415000062,,,,,,,,,,,,,,,,,010,001,2025-05-01_00h24.21.222,Cued GoNogo Task,2024.2.4,60.20331862590803,2025-05-01 00h24.28.480621 +0200,
block/CondBlock2.xlsx,You are about to start a block of type 2 trials.,10,10,0,Go,Go,0.14,0.2,0.05,space,green,vertical,space,251.78951030003373,None,space,1,0.16486660006921738,None,,,,0,1,1,1,0,10,10,10,663.6882504000096,,,,,,,,,,,,,,,,663.6727471000049,663.6882504000096,664.3874769000104,664.3874769000104,664.8872422999702,664.8710046999622,664.871461099945,664.8872422999702,665.0371733999345,665.2203366999747,665.2203366999747,665.3879695999203,space,1,0.16486660006921738,None,665.3918109999504,665.9028560000006,666.9023282999406,666.886663399986,,,,,,,,,,,,,,,,,010,001,2025-05-01_00h24.21.222,Cued GoNogo Task,2024.2.4,60.20331862590803,2025-05-01 00h24.28.480621 +0200,
block/CondBlock2.xlsx,You are about to start a block of type 2 trials.,11,11,0,Go,Go,0.27,0.2,0.05,space,green,vertical,space,251.78951030003373,None,space,1,0.14527620002627373,None,,,,0,1,1,1,0,11,11,11,666.9023282999406,,,,,,,,,,,,,,,,666.8869624999352,666.9023282999406,667.6017284999834,667.6017284999834,668.1011384999147,668.0856364999199,668.086379299988,668.1011384999147,668.384242799948,668.5675045999233,668.5675045999233,668.7180798999034,space,1,0.14527620002627373,None,668.7222935999744,669.2335178999929,670.2329045999795,670.2166606999235,,,,,,,,,,,,,,,,,010,001,2025-05-01_00h24.21.222,Cued GoNogo Task,2024.2.4,60.20331862590803,2025-05-01 00h24.28.480621 +0200,
block/CondBlock2.xlsx,You are about to start a block of type 2 trials.,12,12,0,Go,Go,0.3,0.05,0.2,space,green,horizontal,space,251.78951030003373,None,space,1,0.1663198999594897,None,,,,0,1,1,1,0,12,12,12,670.2329045999795,,,,,,,,,,,,,,,,670.2168951999629,670.2329045999795,670.9320680999663,670.9320680999663,671.4316365999402,671.41601419996,671.4167811999796,671.4316365999402,671.7315798999043,671.9314674999332,671.9314674999332,672.1003408000106,space,1,0.1663198999594897,None,672.1037351000123,672.6140704000136,673.6133425999433,673.5977899999125,,,,,,,,,,,,,,,,,010,001,2025-05-01_00h24.21.222,Cued GoNogo Task,2024.2.4,60.20331862590803,2025-05-01 00h24.28.480621 +0200,
block/CondBlock2.xlsx,You are about to start a block of type 2 trials.,13,13,0,Go,Go,0.18,0.2,0.05,space,blue,vertical,space,251.78951030003373,None,space,1,0.14088139997329563,None,,,,0,1,1,1,0,13,13,13,673.6133425999433,,,,,,,,,,,,,,,,673.5981409999076,673.6133425999433,674.3127678999444,674.3127678999444,674.8123766999925,674.7961860999931,674.7967116999207,674.8123766999925,674.9955871999264,675.1955040999455,675.1955040999455,675.3463571999455,space,1,0.14088139997329563,None,675.350180999958,675.8615095999558,676.8606751000043,676.8449250999838,,,,,,,,,,,,,,,,,010,001,2025-05-01_00h24.21.222,Cued GoNogo Task,2024.2.4,60.20331862590803,2025-05-01 00h24.28.480621 +0200,
block/CondBlock2.xlsx,You are about to start a block of type 2 trials.,14,14,0,Go,Go,0.13,0.2,0.05,space,green,vertical,space,251.78951030003373,None,space,1,0.20865420007612556,None,,,,0,1,1,1,0,14,14,14,676.8606751000043,,,,,,,,,,,,,,,,676.8452650000108,676.8606751000043,677.5600110999076,677.5600110999076,678.0596003999235,678.0437048999593,678.0442525999388,678.0596003999235,678.1931608999148,678.376101700007,678.376101700007,678.5937007999746,space,1,0.20865420007612556,None,678.5989119999576,679.1089260999579,,680.1079655999783,,,,,,,,,,,,,,,,,010,001,2025-05-01_00h24.21.222,Cued GoNogo Task,2024.2.4,60.20331862590803,2025-05-01 00h24.28.480621 +0200,
block/CondBlock2.xlsx,You are about to start a block of type 2 trials.,15,15,0,Go,Go,0.18,0.2,0.05,space,blue,vertical,space,251.78951030003373,None,space,1,0.1508784000761807,None,,,,0,1,1,1,0,15,15,15,680.124683199916,,,,,,,,,,,,,,,,680.1082218999509,680.124683199916,680.807405599975,680.8242423000047,681.3070443000179,681.2912460999796,681.29199529998,681.3070443000179,681.490298199933,681.6733123000013,681.6733123000013,681.8410976999439,space,1,0.1508784000761807,None,681.8460637999233,682.3561557999346,683.355252899928,683.3392202999676,,,,,,,,,,,,,,,,,010,001,2025-05-01_00h24.21.222,Cued GoNogo Task,2024.2.4,60.20331862590803,2025-05-01 00h24.28.480621 +0200,
block/CondBlock2.xlsx,You are about to start a block of type 2 trials.,16,16,0,Go,Go,0.24,0.2,0.05,space,green,vertical,space,251.78951030003373,None,space,1,0.1582457999465987,None,,,,0,1,1,1,0,16,16,16,683.355252899928,,,,,,,,,,,,,,,,683.3394249000121,683.355252899928,684.0549888999667,684.0549888999667,684.5542478999123,684.5383693999611,684.5389673999744,684.5542478999123,684.804212499992,684.9872279999545,684.9872279999545,685.1549275999423,space,1,0.1582457999465987,None,685.1591572999023,685.6700490999501,686.669242199976,686.6536278999411,,,,,,,,,,,,,,,,,010,001,2025-05-01_00h24.21.222,Cued GoNogo Task,2024.2.4,60.20331862590803,2025-05-01 00h24.28.480621 +0200,
block/CondBlock2.xlsx,You are about to start a block of type 2 trials.,17,17,0,Go,Go,0.26,0.2,0.05,space,blue,vertical,space,251.78951030003373,None,space,1,0.1145211000693962,None,,,,0,1,1,1,0,17,17,17,686.669242199976,,,,,,,,,,,,,,,,686.6539604999125,686.669242199976,687.3687446999829,687.3687446999829,687.868253499968,687.852061899961,687.8525936999358,687.868253499968,688.1347950999625,688.3179156999104,688.3179156999104,688.4356485999888,space,1,0.1145211000693962,None,688.4395630999934,688.9508410999551,689.9498409999069,689.933975199936,,,,,,,,,,,,,,,,,010,001,2025-05-01_00h24.21.222,Cued GoNogo Task,2024.2.4,60.20331862590803,2025-05-01 00h24.28.480621 +0200,
block/CondBlock2.xlsx,You are about to start a block of type 2 trials.,18,18,0,Go,Go,0.1,0.05,0.2,space,blue,horizontal,space,251.78951030003373,None,space,1,0.13626050006132573,None,,,,0,1,1,1,0,18,18,18,689.9498409999069,,,,,,,,,,,,,,,,689.934250799939,689.9498409999069,690.6492747999728,690.6492747999728,691.1488374999026,691.1330572000006,691.1336632999592,691.1488374999026,691.2487687999383,691.4485798999667,691.4485798999667,691.5995727999834,space,1,0.13626050006132573,None,691.6036453999113,692.1146967000095,693.1140224999981,693.098236199934,,,,,,,,,,,,,,,,,010,001,2025-05-01_00h24.21.222,Cued GoNogo Task,2024.2.4,60.20331862590803,2025-05-01 00h24.28.480621 +0200,
block/CondBlock2.xlsx,You are about to start a block of type 2 trials.,19,19,0,Go,Go,0.46,0.2,0.05,space,blue,vertical,space,251.78951030003373,None,space,1,0.15039600001182407,None,,,,0,1,1,1,0,19,19,19,693.1140224999981,,,,,,,,,,,,,,,,693.098592699971,693.1140224999981,693.8133175999392,693.8133175999392,694.3128566999221,694.296872499981,694.2975127999671,694.3128566999221,694.779285299941,694.9625653999392,694.9625653999392,695.1301198999863,space,1,0.15039600001182407,None,695.1345481999451,695.6451239999151,696.6444377999287,696.6285578999668,,,,,,,,,,,,,,,,,010,001,2025-05-01_00h24.21.222,Cued GoNogo Task,2024.2.4,60.20331862590803,2025-05-01 00h24.28.480621 +0200,
block/CondBlock2.xlsx,You are about to start a block of type 2 trials.,20,20,0,Go,Go,0.3,0.05,0.2,space,blue,horizontal,space,251.78951030003373,None,space,1,0.13761989993508905,None,,,,0,1,1,1,0,20,20,20,696.6444377999287,,,,,,,,,,,,,,,,696.628825899912,696.6444377999287,697.3439132999629,697.3439132999629,697.8434374999488,697.827560900012,697.8283206999768,697.8434374999488,698.1431229999289,698.343075199984,698.343075199984,698.4939959999174,space,1,0.13761989993508905,None,698.4979952999856,699.0090635999804,700.0082756999182,699.9922960000113,,,,,,,,,,,,,,,,,010,001,2025-05-01_00h24.21.222,Cued GoNogo Task,2024.2.4,60.20331862590803,2025-05-01 00h24.28.480621 +0200,
block/CondBlock2.xlsx,You are about to start a block of type 2 trials.,21,21,0,Go,Go,0.23,0.05,0.2,space,green,horizontal,space,251.78951030003373,None,space,1,0.07320409989915788,None,,,,0,1,1,1,0,21,21,21,700.0082756999182,,,,,,,,,,,,,,,,699.9925381999929,700.0082756999182,700.7077952999389,700.7077952999389,701.2072830999969,701.1913357999874,701.191960999975,701.2072830999969,701.4404501999961,701.6235798000125,701.6235798000125,701.707851999905,space,1,0.07320409989915788,None,701.710985200014,702.2232048999285,703.2222986000124,703.2062735999934,,,,,,,,,,,,,,,,,010,001,2025-05-01_00h24.21.222,Cued GoNogo Task,2024.2.4,60.20331862590803,2025-05-01 00h24.28.480621 +0200,
block/CondBlock2.xlsx,You are about to start a block of type 2 trials.,22,22,0,Go,Go,0.19,0.2,0.05,space,green,vertical,space,251.78951030003373,None,space,1,0.316528300056234,None,,,,0,1,1,1,0,22,22,22,703.2222986000124,,,,,,,,,,,,,,,,703.2065650000004,703.2222986000124,703.9217626999598,703.9217626999598,704.4214228999335,704.4054361999733,704.4060946999816,704.4214228999335,704.6212290999247,704.8044383999659,704.8044383999659,705.1229062000057,space,1,0.316528300056234,None,705.1261109999614,705.6369747999124,706.6362516999943,706.6204085999634,,,,,,,,,,,,,,,,,010,001,2025-05-01_00h24.21.222,Cued GoNogo Task,2024.2.4,60.20331862590803,2025-05-01 00h24.28.480621 +0200,
block/CondBlock2.xlsx,You are about to start a block of type 2 trials.,23,23,0,NoGo,NoGo,0.41,0.2,0.05,none,blue,vertical,space,251.78951030003373,None,None,1,,,,,,0,1,1,1,0,23,23,23,706.6362516999943,,,,,,,,,,,,,,,,706.6207057000138,706.6362516999943,707.3355128999101,707.3355128999101,707.8350913999602,707.8191140999552,707.8196381999878,707.8350913999602,708.2516812999966,708.4347506999038,708.4347506999038,708.9184341999935,None,1,,,708.921188200009,709.4338894999819,710.433046799968,710.4169064000016,708.9343408999266,708.9343408999266,,,,,,,,,,,,,,,010,001,2025-05-01_00h24.21.222,Cued GoNogo Task,2024.2.4,60.20331862590803,2025-05-01 00h24.28.480621 +0200,
block/CondBlock2.xlsx,You are about to start a block of type 2 trials.,24,24,0,Go,Go,0.17,0.2,0.05,space,blue,vertical,space,251.78951030003373,None,space,1,0.1629688999382779,None,,,,0,1,1,1,0,24,24,24,710.433046799968,,,,,,,,,,,,,,,,710.4171727999346,710.433046799968,711.1324879999738,711.1324879999738,711.6318950999994,711.616184799932,711.6167941999156,711.6318950999994,711.8151788999094,711.9984121000161,711.9984121000161,712.166293199989,space,1,0.1629688999382779,None,712.1691964999773,712.6814292999916,,713.6803918000078,,,,,,,,,,,,,,,,,010,001,2025-05-01_00h24.21.222,Cued GoNogo Task,2024.2.4,60.20331862590803,2025-05-01 00h24.28.480621 +0200,
block/CondBlock2.xlsx,You are about to start a block of type 2 trials.,25,25,0,Go,Go,0.27,0.05,0.2,space,blue,horizontal,space,251.78951030003373,None,space,1,0.1583103999728337,None,,,,0,1,1,1,0,25,25,25,713.6971028000116,,,,,,,,,,,,,,,,713.6806433999445,713.6971028000116,714.3797656999668,714.3967038999544,714.8793978999602,714.863355099922,714.8639907999896,714.8793978999602,715.1624284000136,715.3457239000127,715.3457239000127,715.5135777000105,space,1,0.1583103999728337,None,715.5166569999419,716.0283608000027,717.0276445999043,717.0115715999855,,,,,,,,,,,,,,,,,010,001,2025-05-01_00h24.21.222,Cued GoNogo Task,2024.2.4,60.20331862590803,2025-05-01 00h24.28.480621 +0200,
block/CondBlock2.xlsx,You are about to start a block of type 2 trials.,26,26,0,Go,Go,0.26,0.05,0.2,space,green,horizontal,space,251.78951030003373,None,space,1,0.1638196000130847,None,,,,0,1,1,1,0,26,26,26,717.0276445999043,,,,,,,,,,,,,,,,717.0118073999183,717.0276445999043,717.7272094999207,717.7272094999207,718.2265904999804,718.2106332000112,718.2112264999887,718.2265904999804,718.4929676000029,718.6763348999666,718.6763348999666,718.8444563999074,space,1,0.1638196000130847,None,718.8491931000026,719.3591247999575,720.358395999996,720.3422160999617,,,,,,,,,,,,,,,,,010,001,2025-05-01_00h24.21.222,Cued GoNogo Task,2024.2.4,60.20331862590803,2025-05-01 00h24.28.480621 +0200,
block/CondBlock2.xlsx,You are about to start a block of type 2 trials.,27,27,0,Go,Go,0.22,0.2,0.05,space,green,vertical,space,251.78951030003373,None,space,1,0.12384919996839017,None,,,,0,1,1,1,0,27,27,27,720.358395999996,,,,,,,,,,,,,,,,720.3426065999083,720.358395999996,721.0576068999944,721.0576068999944,721.5570692999754,721.5410795999924,721.5415373999858,721.5570692999754,721.7903262999607,721.9735851999139,721.9735851999139,722.1077637999551,space,1,0.12384919996839017,None,722.1110718999989,722.6229626999702,723.6224239999428,723.606054599979,,,,,,,,,,,,,,,,,010,001,2025-05-01_00h24.21.222,Cued GoNogo Task,2024.2.4,60.20331862590803,2025-05-01 00h24.28.480621 +0200,
block/CondBlock2.xlsx,You are about to start a block of type 2 trials.,28,28,0,Go,Go,0.19,0.05,0.2,space,blue,horizontal,space,251.78951030003373,None,space,1,0.172554999939166,None,,,,0,1,1,1,0,28,28,28,723.6224239999428,,,,,,,,,,,,,,,,723.6062861999962,723.6224239999428,724.3216922999127,724.3216922999127,724.8211194999749,724.8054937999696,724.8063150999369,724.8211194999749,725.0212169999722,725.204350899905,725.204350899905,725.3884033999639,space,1,0.172554999939166,None,725.3926422999939,725.9035755000077,726.9027726999484,726.8872242999496,,,,,,,,,,,,,,,,,010,001,2025-05-01_00h24.21.222,Cued GoNogo Task,2024.2.4,60.20331862590803,2025-05-01 00h24.28.480621 +0200,
block/CondBlock2.xlsx,You are about to start a block of type 2 trials.,29,29,0,Go,Go,0.18,0.05,0.2,space,blue,horizontal,space,251.78951030003373,None,space,1,0.11710359994322062,None,,,,0,1,1,1,0,29,29,29,726.9027726999484,,,,,,,,,,,,,,,,726.8874543999555,726.9027726999484,727.602172199986,727.602172199986,728.10182849993,728.0862964999396,728.0869803999085,728.10182849993,728.2849942999892,728.4682117999764,728.4682117999764,728.602829099982,space,1,0.11710359994322062,None,728.6068674999988,729.1179388000164,730.1168026999803,730.1011223999085,,,,,,,,,,,,,,,,,010,001,2025-05-01_00h24.21.222,Cued GoNogo Task,2024.2.4,60.20331862590803,2025-05-01 00h24.28.480621 +0200,
block/CondBlock2.xlsx,You are about to start a block of type 2 trials.,30,30,0,NoGo,NoGo,0.23,0.2,0.05,none,blue,vertical,space,251.78951030003373,None,None,1,,,,,,0,1,1,1,0,30,30,30,730.1168026999803,,,,,,,,,,,,,,,,730.1014247999992,730.1168026999803,730.8163641999708,730.8163641999708,731.3157627999317,731.2998459999217,731.3004479999654,731.3157627999317,731.5490366999293,731.7321056999499,731.7321056999499,732.2156363999238,None,1,,,732.2182073999429,732.7313231999287,733.7304775000084,733.7148228000151,732.231648099958,732.231648099958,,,,,,,,,,,,,,,010,001,2025-05-01_00h24.21.222,Cued GoNogo Task,2024.2.4,60.20331862590803,2025-05-01 00h24.28.480621 +0200,
block/CondBlock2.xlsx,You are about to start a block of type 2 trials.,31,31,0,Go,Go,0.43,0.2,0.05,space,green,vertical,space,251.78951030003373,None,space,1,0.12755370000377297,None,,,,0,1,1,1,0,31,31,31,733.7304775000084,,,,,,,,,,,,,,,,733.7151355999522,733.7304775000084,734.4298895999091,734.4298895999091,734.9297092999332,734.913884999929,734.9146993999602,734.9297092999332,735.3626138999825,735.5455924000125,735.5455924000125,735.6802460999461,space,1,0.12755370000377297,None,735.6850233000005,736.195266499999,737.1941813000012,737.1784621999832,,,,,,,,,,,,,,,,,010,001,2025-05-01_00h24.21.222,Cued GoNogo Task,2024.2.4,60.20331862590803,2025-05-01 00h24.28.480621 +0200,
block/CondBlock2.xlsx,You are about to start a block of type 2 trials.,32,32,0,Go,Go,0.13,0.05,0.2,space,blue,horizontal,space,251.78951030003373,None,space,1,0.1640184000134468,None,,,,0,1,1,1,0,32,32,32,737.1941813000012,,,,,,,,,,,,,,,,737.1787785999477,737.1941813000012,737.8938538999064,737.8938538999064,738.3933257999597,738.3774257999612,738.3781286999583,738.3933257999597,738.5265202999581,738.7097358999308,738.7097358999308,738.8774086999474,space,1,0.1640184000134468,None,738.8815155999037,739.3925345999887,740.3916766999755,740.3755518000107,,,,,,,,,,,,,,,,,010,001,2025-05-01_00h24.21.222,Cued GoNogo Task,2024.2.4,60.20331862590803,2025-05-01 00h24.28.480621 +0200,
block/CondBlock2.xlsx,You are about to start a block of type 2 trials.,33,33,0,Go,Go,0.45,0.05,0.2,space,green,horizontal,space,251.78951030003373,None,space,1,0.34490080003160983,None,,,,0,1,1,1,0,33,33,33,740.3916766999755,,,,,,,,,,,,,,,,740.3758358999621,740.3916766999755,741.0910781999119,741.0910781999119,741.5905299999285,741.5749543999555,741.5759584999178,741.5905299999285,742.040613399935,742.2402994999429,742.2402994999429,742.5907325999578,space,1,0.34490080003160983,None,742.5938771999208,743.1063000999857,744.1053539999994,744.0893424999667,,,,,,,,,,,,,,,,,010,001,2025-05-01_00h24.21.222,Cued GoNogo Task,2024.2.4,60.20331862590803,2025-05-01 00h24.28.480621 +0200,
block/CondBlock2.xlsx,You are about to start a block of type 2 trials.,34,34,0,Go,Go,0.14,0.2,0.05,space,blue,vertical,space,251.78951030003373,None,space,1,0.1955356999533251,None,,,,0,1,1,1,0,34,34,34,744.1053539999994,,,,,,,,,,,,,,,,744.089580199914,744.1053539999994,744.804741699947,744.804741699947,745.3043493999867,745.288607699913,745.2893327999627,745.3043493999867,745.4541021999903,745.6373381000012,745.6373381000012,745.8387059000088,space,1,0.1955356999533251,None,745.8423081999645,746.3534693999682,747.3525942999404,747.336934599909,,,,,,,,,,,,,,,,,010,001,2025-05-01_00h24.21.222,Cued GoNogo Task,2024.2.4,60.20331862590803,2025-05-01 00h24.28.480621 +0200,
block/CondBlock2.xlsx,You are about to start a block of type 2 trials.,35,35,0,Go,Go,0.11,0.2,0.05,space,blue,vertical,space,251.78951030003373,None,space,1,0.1570527000585571,None,,,,0,1,1,1,0,35,35,35,747.3525942999404,,,,,,,,,,,,,,,,747.3372383000096,747.3525942999404,748.0521306999726,748.0521306999726,748.5517496999819,748.535498799989,748.5360800999915,748.5517496999819,748.6684471999761,748.8514129999094,748.8514129999094,749.0191575000063,space,1,0.1570527000585571,None,749.023114199983,749.5342550999485,750.5335845999653,750.5174142000033,,,,,,,,,,,,,,,,,010,001,2025-05-01_00h24.21.222,Cued GoNogo Task,2024.2.4,60.20331862590803,2025-05-01 00h24.28.480621 +0200,
block/CondBlock2.xlsx,You are about to start a block of type 2 trials.,36,36,0,Go,Go,0.15,0.05,0.2,space,green,horizontal,space,251.78951030003373,None,space,1,0.08651990001089871,None,,,,0,1,1,1,0,36,36,36,750.5335845999653,,,,,,,,,,,,,,,,750.5176445000106,750.5335845999653,751.2327895999188,751.2327895999188,751.7325732000172,751.7164807999507,751.7171332999133,751.7325732000172,751.8821899999166,752.0821785000153,752.0821785000153,752.1834621999878,space,1,0.08651990001089871,None,752.1882892999565,752.6984025000129,753.6973685999401,753.6820318999235,,,,,,,,,,,,,,,,,010,001,2025-05-01_00h24.21.222,Cued GoNogo Task,2024.2.4,60.20331862590803,2025-05-01 00h24.28.480621 +0200,
block/CondBlock2.xlsx,You are about to start a block of type 2 trials.,37,37,0,Go,Go,0.15,0.2,0.05,space,green,vertical,space,251.78951030003373,None,space,1,0.12318860006053,None,,,,0,1,1,1,0,37,37,37,753.6973685999401,,,,,,,,,,,,,,,,753.6823211999144,753.6973685999401,754.3969842999941,754.3969842999941,754.8964865999296,754.8806063999655,754.8812334999675,754.8964865999296,755.0462332000025,755.246092599933,755.246092599933,755.380302399979,space,1,0.12318860006053,None,755.3834010999417,755.8957435999764,756.8948213999392,756.8791519999504,,,,,,,,,,,,,,,,,010,001,2025-05-01_00h24.21.222,Cued GoNogo Task,2024.2.4,60.20331862590803,2025-05-01 00h24.28.480621 +0200,
block/CondBlock2.xlsx,You are about to start a block of type 2 trials.,38,38,0,NoGo,NoGo,0.14,0.2,0.05,none,green,vertical,space,251.78951030003373,None,None,1,,,,,,0,1,1,1,0,38,38,38,756.8948213999392,,,,,,,,,,,,,,,,756.8794905999675,756.8948213999392,757.5941885999637,757.5941885999637,758.0937765999697,758.0779296999099,758.0786660999293,758.0937765999697,758.2436167999404,758.4268637999194,758.4268637999194,758.9109858999727,None,1,,,758.9151962000178,759.4260697999271,760.4253926000092,760.4091542999959,758.9264995999401,758.9264995999401,,,,,,,,,,,,,,,010,001,2025-05-01_00h24.21.222,Cued GoNogo Task,2024.2.4,60.20331862590803,2025-05-01 00h24.28.480621 +0200,
block/CondBlock2.xlsx,You are about to start a block of type 2 trials.,39,39,0,Go,Go,0.46,0.2,0.05,space,green,vertical,space,251.78951030003373,None,space,1,0.13541490002535284,None,,,,0,1,1,1,0,39,39,39,760.4253926000092,,,,,,,,,,,,,,,,760.4094026999082,760.4253926000092,761.1248596999794,761.1248596999794,761.6242028999841,761.6084151999094,761.6090488999616,761.6242028999841,762.0905168999452,762.273893799982,762.273893799982,762.4248241999885,space,1,0.13541490002535284,None,762.4284240999259,762.9400594999315,,763.9391855999129,,,,,,,,,,,,,,,,,010,001,2025-05-01_00h24.21.222,Cued GoNogo Task,2024.2.4,60.20331862590803,2025-05-01 00h24.28.480621 +0200,
block/CondBlock2.xlsx,You are about to start a block of type 2 trials.,40,40,0,Go,Go,0.5,0.05,0.2,space,blue,horizontal,space,251.78951030003373,None,space,1,0.12323680007830262,None,,,,0,1,1,1,0,40,40,40,763.955521899974,,,,,,,,,,,,,,,,763.9394836999709,763.955521899974,764.6383944000117,764.6549577999394,765.1380520999664,765.1220883999486,765.1227503999835,765.1380520999664,765.6374862999655,765.8374875999289,765.8374875999289,765.9723290000111,space,1,0.12323680007830262,None,765.9750951000024,766.4870144999586,767.4860329999356,767.4700261999387,,,,,,,,,,,,,,,,,010,001,2025-05-01_00h24.21.222,Cued GoNogo Task,2024.2.4,60.20331862590803,2025-05-01 00h24.28.480621 +0200,
block/CondBlock2.xlsx,You are about to start a block of type 2 trials.,41,41,0,Go,Go,0.16,0.05,0.2,space,green,horizontal,space,251.78951030003373,None,space,1,0.190454600029625,None,,,,0,1,1,1,0,41,41,41,767.4860329999356,,,,,,,,,,,,,,,,767.4702485000016,767.4860329999356,768.1854693999048,768.1854693999048,768.6850297999335,768.6692752999952,768.669828999904,768.6850297999335,768.851718199905,769.0348612999078,769.0348612999078,769.2361771999858,space,1,0.190454600029625,None,769.2418658999959,769.7509258999489,770.7498955999035,770.734233599971,,,,,,,,,,,,,,,,,010,001,2025-05-01_00h24.21.222,Cued GoNogo Task,2024.2.4,60.20331862590803,2025-05-01 00h24.28.480621 +0200,
