Block,blockMsg,thisN,thisTrialN,thisRepN,CueType,StimType,CueTime,Stim_Height,Stim_Width,CRESP,Color,Orientation,key_resp_2.keys,key_resp_2.rt,key_resp_2.duration,Key_Resp.keys,Key_Resp.corr,Key_Resp.rt,Key_Resp.duration,key_resp_3.keys,key_resp_3.rt,key_resp_3.duration,Blocks.thisRepN,Blocks.thisTrialN,Blocks.thisN,Blocks.thisIndex,Trials.thisRepN,Trials.thisTrialN,Trials.thisN,Trials.thisIndex,thisRow.t,notes,TaskIntro.started,fixation.started,key_resp.started,TaskIntro.stopped,key_resp.keys,key_resp.rt,key_resp.duration,BlockStart.started,BlockStart_Msg.started,key_resp_2.started,BlockStart.stopped,Blocks.key_resp_2.keys,Blocks.key_resp_2.rt,Blocks.key_resp_2.duration,Fixation.started,FixationPhase.started,Blank.started,FixationPhase.stopped,Blank.stopped,Fixation.stopped,Trial.started,Cue.started,Cue.stopped,GoNogo_Stim.started,Key_Resp.started,Trial.stopped,Trials.Key_Resp.keys,Trials.Key_Resp.corr,Trials.Key_Resp.rt,Trials.Key_Resp.duration,Feedback.started,Feedback_Present.started,Feedback_Present.stopped,Feedback.stopped,GoNogo_Stim.stopped,Key_Resp.stopped,BlockEnd.started,BlockEnd_Msg.started,key_resp_3.started,BlockEnd.stopped,Blocks.key_resp_3.keys,Blocks.key_resp_3.rt,Blocks.key_resp_3.duration,TaskEnd.started,ThankYou.started,key_resp_4.started,TaskEnd.stopped,key_resp_4.keys,key_resp_4.rt,key_resp_4.duration,participant,session,date,expName,psychopyVersion,frameRate,expStart,
,,,,,,,,,,,,,,,,,,,,,,,,,,,,,,,,,0.001516799908131361,0.0036148999352008104,0.0036148999352008104,67.35347309999634,space,67.25858949997928,None,,,,,,,,,,,,,,,,,,,,,,,,,,,,,,,,,,,,,,,,,,,,009,002,2025-05-02_20h14.36.651,Cued GoNogo Task,2024.2.4,59.98123783766401,2025-05-02 20h23.10.315235 +0200,
block/CondBlock1.xlsx,You are about to start a block of type 1 trials.,0,0,0,Go,Go,0.13,0.05,0.2,space,blue,horizontal,space,0.9597582999849692,None,space,1,0.33102299994789064,None,,,,0,0,0,0,0,0,0,0,68.42230779991951,,,,,,,,,67.36333929991815,67.3658156999154,67.3658156999154,68.32797409989871,space,0.9597582999849692,None,68.41961029998492,68.42230779991951,69.04247839993332,69.12571179994848,69.54207469988614,69.52600079996046,69.52672329999041,69.54207469988614,69.67527839995455,69.85840309993364,69.85840309993364,70.19235889997799,space,1,0.33102299994789064,None,70.20377149991691,70.70822209992912,71.7071398999542,71.69133079994936,,,,,,,,,,,,,,,,,009,002,2025-05-02_20h14.36.651,Cued GoNogo Task,2024.2.4,59.98123783766401,2025-05-02 20h23.10.315235 +0200,
block/CondBlock1.xlsx,You are about to start a block of type 1 trials.,1,1,0,NoGo,NoGo,0.43,0.05,0.2,none,blue,horizontal,space,0.9597582999849692,None,None,1,,,,,,0,0,0,0,0,1,1,1,71.7071398999542,,,,,,,,,,,,,,,,71.69167259999085,71.7071398999542,72.40651769994292,72.40651769994292,72.90613229991868,72.8901615999639,72.89068789989688,72.90613229991868,73.33910359989386,73.52232189988717,73.52232189988717,74.00581579993013,None,1,,,74.00828469998669,74.50499069993384,75.50409559998661,75.4883590999525,74.02212659991346,74.02212659991346,,,,,,,,,,,,,,,009,002,2025-05-02_20h14.36.651,Cued GoNogo Task,2024.2.4,59.98123783766401,2025-05-02 20h23.10.315235 +0200,
block/CondBlock1.xlsx,You are about to start a block of type 1 trials.,2,2,0,Go,Go,0.12,0.2,0.05,space,blue,vertical,space,0.9597582999849692,None,space,1,0.37747680000029504,None,,,,0,0,0,0,0,2,2,2,75.50409559998661,,,,,,,,,,,,,,,,75.48869509994984,75.52074729988817,76.22024519997649,76.22024519997649,76.7196769999573,76.70424110000022,76.70500429999083,76.7196769999573,76.85299049993046,77.03624379995745,77.03624379995745,77.42011909990106,space,1,0.37747680000029504,None,77.42489659995772,77.93558459996711,,78.93471079994924,,,,,,,,,,,,,,,,,009,002,2025-05-02_20h14.36.651,Cued GoNogo Task,2024.2.4,59.98123783766401,2025-05-02 20h23.10.315235 +0200,
block/CondBlock1.xlsx,You are about to start a block of type 1 trials.,3,3,0,NoGo,NoGo,0.18,0.2,0.05,none,green,vertical,space,0.9597582999849692,None,None,1,,,,,,0,0,0,0,0,3,3,3,78.95131769997533,,,,,,,,,,,,,,,,78.93498129991349,78.95131769997533,79.63392739999108,79.65059749991633,80.13362679991405,80.11802249995526,80.11891559988726,80.13362679991405,80.31706759997178,80.49993009993341,80.49993009993341,80.98384609993082,None,1,,,80.9867746999953,81.49915209994651,82.49841079988983,82.48235789989121,80.99947079992853,80.99947079992853,,,,,,,,,,,,,,,009,002,2025-05-02_20h14.36.651,Cued GoNogo Task,2024.2.4,59.98123783766401,2025-05-02 20h23.10.315235 +0200,
block/CondBlock1.xlsx,You are about to start a block of type 1 trials.,4,4,0,Go,Go,0.24,0.05,0.2,space,green,horizontal,space,0.9597582999849692,None,space,1,0.300641700043343,None,,,,0,0,0,0,0,4,4,4,82.49841079988983,,,,,,,,,,,,,,,,82.48262349993456,82.49841079988983,83.19753719994333,83.19753719994333,83.69725709990598,83.68141249998007,83.68197339994367,83.69725709990598,83.94713639991824,84.13014789996669,84.13014789996669,84.4482580999611,space,1,0.300641700043343,None,84.45444389991462,84.96281709999312,85.96213909995276,85.9465178999817,,,,,,,,,,,,,,,,,009,002,2025-05-02_20h14.36.651,Cued GoNogo Task,2024.2.4,59.98123783766401,2025-05-02 20h23.10.315235 +0200,
block/CondBlock1.xlsx,You are about to start a block of type 1 trials.,5,5,0,Go,Go,0.21,0.05,0.2,space,blue,horizontal,space,0.9597582999849692,None,space,1,0.26899010001216084,None,,,,0,0,0,0,0,5,5,5,85.96213909995276,,,,,,,,,,,,,,,,85.94690089998767,85.96213909995276,86.66163459990639,86.66163459990639,87.1611468999181,87.14516889990773,87.14590099989437,87.1611468999181,87.37758179998491,87.56084719998762,87.56084719998762,87.84483519999776,space,1,0.26899010001216084,None,87.84969069994986,88.36027649999596,89.35923739999998,89.34344819991384,,,,,,,,,,,,,,,,,009,002,2025-05-02_20h14.36.651,Cued GoNogo Task,2024.2.4,59.98123783766401,2025-05-02 20h23.10.315235 +0200,
block/CondBlock1.xlsx,You are about to start a block of type 1 trials.,6,6,0,Go,Go,0.11,0.2,0.05,space,blue,vertical,space,0.9597582999849692,None,space,1,0.3719560999888927,None,,,,0,0,0,0,0,6,6,6,89.35923739999998,,,,,,,,,,,,,,,,89.34370619989932,89.35923739999998,90.05881269997917,90.05881269997917,90.5582265999401,90.54260879999492,90.54334229999222,90.5582265999401,90.67505209997762,90.85822859988548,90.85822859988548,91.24222699995153,space,1,0.3719560999888927,None,91.24623269995209,91.75736129994038,92.75673609995283,92.74055539991241,,,,,,,,,,,,,,,,,009,002,2025-05-02_20h14.36.651,Cued GoNogo Task,2024.2.4,59.98123783766401,2025-05-02 20h23.10.315235 +0200,
block/CondBlock1.xlsx,You are about to start a block of type 1 trials.,7,7,0,Go,Go,0.15,0.2,0.05,space,blue,vertical,space,0.9597582999849692,None,space,1,0.436813100008294,None,,,,0,0,0,0,0,7,7,7,92.75673609995283,,,,,,,,,,,,,,,,92.74079509999137,92.75673609995283,93.45585229992867,93.45585229992867,93.95558579999488,93.93980209995061,93.9404266999336,93.95558579999488,94.10559279995505,94.30532139993738,94.30532139993738,94.75615609996021,space,1,0.436813100008294,None,94.76139319990762,95.27134319988545,96.27028999989852,96.25446439988445,,,,,,,,,,,,,,,,,009,002,2025-05-02_20h14.36.651,Cued GoNogo Task,2024.2.4,59.98123783766401,2025-05-02 20h23.10.315235 +0200,
block/CondBlock1.xlsx,You are about to start a block of type 1 trials.,8,8,0,NoGo,NoGo,0.3,0.05,0.2,none,blue,horizontal,space,0.9597582999849692,None,None,1,,,,,,0,0,0,0,0,8,8,8,96.27028999989852,,,,,,,,,,,,,,,,96.25478809990454,96.27028999989852,96.9697602998931,96.9697602998931,97.46929829998408,97.45329639990814,97.45383649994619,97.46929829998408,97.76909619988874,97.96899749990553,97.96899749990553,98.45292079995852,None,1,,,98.45548549992964,98.96811769995838,99.96727079991251,99.95128359994851,98.46847989992239,98.46847989992239,,,,,,,,,,,,,,,009,002,2025-05-02_20h14.36.651,Cued GoNogo Task,2024.2.4,59.98123783766401,2025-05-02 20h23.10.315235 +0200,
block/CondBlock1.xlsx,You are about to start a block of type 1 trials.,9,9,0,NoGo,NoGo,0.17,0.05,0.2,none,blue,horizontal,space,0.9597582999849692,None,None,1,,,,,,0,0,0,0,0,9,9,9,99.96727079991251,,,,,,,,,,,,,,,,99.95152359991334,99.96727079991251,100.66666999994777,100.66666999994777,101.16644569998607,101.15029289992526,101.15089559997432,101.16644569998607,101.34954259998631,101.5326752999099,101.5326752999099,102.01645239989739,None,1,,,102.01709639991168,102.53194479993545,103.53100219997577,103.51522429997567,102.03217059990857,102.03217059990857,,,,,,,,,,,,,,,009,002,2025-05-02_20h14.36.651,Cued GoNogo Task,2024.2.4,59.98123783766401,2025-05-02 20h23.10.315235 +0200,
block/CondBlock1.xlsx,You are about to start a block of type 1 trials.,10,10,0,NoGo,NoGo,0.26,0.2,0.05,none,green,vertical,space,0.9597582999849692,None,None,1,,,,,,0,0,0,0,0,10,10,10,103.53100219997577,,,,,,,,,,,,,,,,103.51552059990354,103.53100219997577,104.23043339990545,104.23043339990545,104.72996689996216,104.71408579999115,104.71470979996957,104.72996689996216,104.99660989991389,105.17958359990735,105.17958359990735,105.66370199993253,None,1,,,105.66423579992261,106.17883649992291,107.17813079990447,107.16227279999293,105.67945789999794,105.67945789999794,,,,,,,,,,,,,,,009,002,2025-05-02_20h14.36.651,Cued GoNogo Task,2024.2.4,59.98123783766401,2025-05-02 20h23.10.315235 +0200,
block/CondBlock1.xlsx,You are about to start a block of type 1 trials.,11,11,0,Go,Go,0.27,0.05,0.2,space,green,horizontal,space,0.9597582999849692,None,space,1,0.2902241999981925,None,,,,0,0,0,0,0,11,11,11,107.17813079990447,,,,,,,,,,,,,,,,107.16258829995058,107.17813079990447,107.87752519990318,107.87752519990318,108.37694199988618,108.36114869988523,108.3618832998909,108.37694199988618,108.66005469998345,108.84330949990544,108.84330949990544,109.14410609996412,space,1,0.2902241999981925,None,109.1505900999764,109.65956799988635,110.6582594999345,110.64260199991986,,,,,,,,,,,,,,,,,009,002,2025-05-02_20h14.36.651,Cued GoNogo Task,2024.2.4,59.98123783766401,2025-05-02 20h23.10.315235 +0200,
block/CondBlock1.xlsx,You are about to start a block of type 1 trials.,12,12,0,Go,Go,0.16,0.2,0.05,space,green,vertical,space,0.9597582999849692,None,space,1,0.3591967999236658,None,,,,0,0,0,0,0,12,12,12,110.6582594999345,,,,,,,,,,,,,,,,110.64284459990449,110.6582594999345,111.35783149988856,111.35783149988856,111.857504399959,111.84171349997632,111.84246580000035,111.857504399959,112.02391979994718,112.20720319997054,112.20720319997054,112.57492359995376,space,1,0.3591967999236658,None,112.58073609997518,113.08969099994283,114.08897239994258,114.07332539989147,,,,,,,,,,,,,,,,,009,002,2025-05-02_20h14.36.651,Cued GoNogo Task,2024.2.4,59.98123783766401,2025-05-02 20h23.10.315235 +0200,
block/CondBlock1.xlsx,You are about to start a block of type 1 trials.,13,13,0,Go,Go,0.13,0.2,0.05,space,green,vertical,space,0.9597582999849692,None,None,0,,,,,,0,0,0,0,0,13,13,13,114.08897239994258,,,,,,,,,,,,,,,,114.07357989996672,114.08897239994258,114.78828069998417,114.78828069998417,115.28807139990386,115.27201619988773,115.27258099999744,115.28807139990386,115.42128369992133,115.60450329992454,115.60450329992454,116.08801449998282,None,0,,,116.09190589992795,116.60362719988916,117.60292939993087,117.58675239991862,116.10389679996297,116.10389679996297,,,,,,,,,,,,,,,009,002,2025-05-02_20h14.36.651,Cued GoNogo Task,2024.2.4,59.98123783766401,2025-05-02 20h23.10.315235 +0200,
block/CondBlock1.xlsx,You are about to start a block of type 1 trials.,14,14,0,Go,Go,0.12,0.05,0.2,space,blue,horizontal,space,0.9597582999849692,None,space,1,0.35197179997339845,None,,,,0,0,0,0,0,14,14,14,117.60292939993087,,,,,,,,,,,,,,,,117.58703469997272,117.60292939993087,118.3022173999343,118.3022173999343,118.80172129999846,118.78597889991943,118.78675229998771,118.80172129999846,118.93509179993998,119.1181400999194,119.1181400999194,119.48573259997647,space,1,0.35197179997339845,None,119.49023649992887,120.00082869990729,121.00012269988656,120.98455459997058,,,,,,,,,,,,,,,,,009,002,2025-05-02_20h14.36.651,Cued GoNogo Task,2024.2.4,59.98123783766401,2025-05-02 20h23.10.315235 +0200,
block/CondBlock1.xlsx,You are about to start a block of type 1 trials.,15,15,0,Go,Go,0.45,0.2,0.05,space,blue,vertical,space,0.9597582999849692,None,space,1,0.31706180004402995,None,,,,0,0,0,0,0,15,15,15,121.00012269988656,,,,,,,,,,,,,,,,120.98491299990565,121.00012269988656,121.69954409997445,121.69954409997445,122.1991053998936,122.18288949993439,122.18327219993807,122.1991053998936,122.64870119991247,122.84846839995589,122.84846839995589,123.18260259996168,space,1,0.31706180004402995,None,123.18645269994158,123.69787239993457,124.69703349994961,124.68136879999656,,,,,,,,,,,,,,,,,009,002,2025-05-02_20h14.36.651,Cued GoNogo Task,2024.2.4,59.98123783766401,2025-05-02 20h23.10.315235 +0200,
block/CondBlock1.xlsx,You are about to start a block of type 1 trials.,16,16,0,NoGo,NoGo,0.14,0.2,0.05,none,green,vertical,space,0.9597582999849692,None,None,1,,,,,,0,0,0,0,0,16,16,16,124.69703349994961,,,,,,,,,,,,,,,,124.68190959992353,124.69703349994961,125.39652439998463,125.39652439998463,125.89590049989056,125.88039419997949,125.88137279998045,125.89590049989056,126.04597939993255,126.22896669991314,126.22896669991314,126.71287629997823,None,1,,,126.71560339990538,127.22812609991524,128.22722339991014,128.21166869997978,126.72857419995125,126.72857419995125,,,,,,,,,,,,,,,009,002,2025-05-02_20h14.36.651,Cued GoNogo Task,2024.2.4,59.98123783766401,2025-05-02 20h23.10.315235 +0200,
block/CondBlock1.xlsx,You are about to start a block of type 1 trials.,17,17,0,Go,Go,0.12,0.05,0.2,space,green,horizontal,space,0.9597582999849692,None,space,1,0.3267479999922216,None,,,,0,0,0,0,0,17,17,17,128.22722339991014,,,,,,,,,,,,,,,,128.21196469990537,128.22722339991014,128.92669599992223,128.92669599992223,129.42623549990822,129.4102953999536,129.41084119991865,129.42623549990822,129.5596275998978,129.74293429998215,129.74293429998215,130.07725329999812,space,1,0.3267479999922216,None,130.08157319994643,130.59218919998966,131.59131319995504,131.57573349995073,,,,,,,,,,,,,,,,,009,002,2025-05-02_20h14.36.651,Cued GoNogo Task,2024.2.4,59.98123783766401,2025-05-02 20h23.10.315235 +0200,
block/CondBlock1.xlsx,You are about to start a block of type 1 trials.,18,18,0,Go,Go,0.47,0.2,0.05,space,blue,vertical,space,0.9597582999849692,None,space,1,0.3812500999774784,None,,,,0,0,0,0,0,18,18,18,131.59131319995504,,,,,,,,,,,,,,,,131.57632159988862,131.59131319995504,132.29084969998803,132.29084969998803,132.79033779993188,132.7743810999673,132.77502509998158,132.79033779993188,133.27317299996503,133.45648359996267,133.45648359996267,133.84066089999396,space,1,0.3812500999774784,None,133.8435452999547,134.35560649994295,135.35476479993667,135.3391448999755,,,,,,,,,,,,,,,,,009,002,2025-05-02_20h14.36.651,Cued GoNogo Task,2024.2.4,59.98123783766401,2025-05-02 20h23.10.315235 +0200,
block/CondBlock1.xlsx,You are about to start a block of type 1 trials.,19,19,0,Go,Go,0.18,0.2,0.05,space,green,vertical,space,0.9597582999849692,None,space,1,0.3909185999073088,None,,,,0,0,0,0,0,19,19,19,135.35476479993667,,,,,,,,,,,,,,,,135.33948349999264,135.35476479993667,136.0541826999979,136.0541826999979,136.55388089991175,136.53843029995915,136.53919309994671,136.55388089991175,136.7370390999131,136.9201117999619,136.9201117999619,137.32206489995588,space,1,0.3909185999073088,None,137.32662069995422,137.83621409989428,,138.83538979990408,,,,,,,,,,,,,,,,,009,002,2025-05-02_20h14.36.651,Cued GoNogo Task,2024.2.4,59.98123783766401,2025-05-02 20h23.10.315235 +0200,
block/CondBlock1.xlsx,You are about to start a block of type 1 trials.,20,20,0,Go,Go,0.19,0.2,0.05,space,blue,vertical,space,0.9597582999849692,None,space,1,0.45287709997501224,None,,,,0,0,0,0,0,20,20,20,138.85186619998422,,,,,,,,,,,,,,,,138.8355964999646,138.85186619998422,139.53476849989966,139.5513377999887,140.03425809997134,140.01854979991913,140.019240399939,140.03425809997134,140.23421839997172,140.4173014999833,140.4173014999833,140.88472349999938,space,1,0.45287709997501224,None,140.88880809990223,141.39976599998772,142.39893169992138,142.38301509991288,,,,,,,,,,,,,,,,,009,002,2025-05-02_20h14.36.651,Cued GoNogo Task,2024.2.4,59.98123783766401,2025-05-02 20h23.10.315235 +0200,
block/CondBlock1.xlsx,You are about to start a block of type 1 trials.,21,21,0,Go,Go,0.14,0.2,0.05,space,blue,vertical,space,0.9597582999849692,None,space,1,0.3947088000131771,None,,,,0,0,0,0,0,21,21,21,142.39893169992138,,,,,,,,,,,,,,,,142.3832843999844,142.39893169992138,143.09840309992433,143.09840309992433,143.5979560998967,143.5821755999932,143.58283619990107,143.5979560998967,143.7479003999615,143.93105989997275,143.93105989997275,144.3320591999218,space,1,0.3947088000131771,None,144.33633249998093,144.84725809993688,,145.84622889989987,,,,,,,,,,,,,,,,,009,002,2025-05-02_20h14.36.651,Cued GoNogo Task,2024.2.4,59.98123783766401,2025-05-02 20h23.10.315235 +0200,
block/CondBlock1.xlsx,You are about to start a block of type 1 trials.,22,22,0,Go,Go,0.15,0.2,0.05,space,blue,vertical,space,0.9597582999849692,None,space,1,0.3389973999001086,None,,,,0,0,0,0,0,22,22,22,145.8627898999257,,,,,,,,,,,,,,,,145.8464908999158,145.8627898999257,146.5457494999282,146.56220929999836,147.04519209999125,147.0295891999267,147.0304062999785,147.04519209999125,147.19501799996942,147.39468119991943,147.39468119991943,147.7461410999531,space,1,0.3389973999001086,None,147.75024659989867,148.26111749990378,149.26003379991744,149.24461029993836,,,,,,,,,,,,,,,,,009,002,2025-05-02_20h14.36.651,Cued GoNogo Task,2024.2.4,59.98123783766401,2025-05-02 20h23.10.315235 +0200,
block/CondBlock1.xlsx,You are about to start a block of type 1 trials.,23,23,0,Go,Go,0.23,0.05,0.2,space,green,horizontal,space,0.9597582999849692,None,space,1,0.4504064000211656,None,,,,0,0,0,0,0,23,23,23,149.26003379991744,,,,,,,,,,,,,,,,149.24493039993104,149.26003379991744,149.9594919999363,149.9594919999363,150.45904189988505,150.44373329996597,150.44444249989465,150.45904189988505,150.6922897999175,150.87541759992018,150.87541759992018,151.34254399989732,space,1,0.4504064000211656,None,151.34585089993197,151.8580173999071,,152.85742489993572,,,,,,,,,,,,,,,,,009,002,2025-05-02_20h14.36.651,Cued GoNogo Task,2024.2.4,59.98123783766401,2025-05-02 20h23.10.315235 +0200,
block/CondBlock1.xlsx,You are about to start a block of type 1 trials.,24,24,0,Go,Go,0.2,0.2,0.05,space,blue,vertical,space,0.9597582999849692,None,space,1,0.32756060000974685,None,,,,0,0,0,0,0,24,24,24,152.87377019994892,,,,,,,,,,,,,,,,152.8577043999685,152.87377019994892,153.55654919997323,153.5732365999138,154.05599519994576,154.0398585998919,154.04030119988602,154.05599519994576,154.25608669989742,154.45572789991274,154.45572789991274,154.79028809990268,space,1,0.32756060000974685,None,154.79467999993358,155.3051810999168,156.30412109999452,156.28854079998564,,,,,,,,,,,,,,,,,009,002,2025-05-02_20h14.36.651,Cued GoNogo Task,2024.2.4,59.98123783766401,2025-05-02 20h23.10.315235 +0200,
block/CondBlock1.xlsx,You are about to start a block of type 1 trials.,25,25,0,Go,Go,0.15,0.2,0.05,space,blue,vertical,space,0.9597582999849692,None,space,1,0.35293169994838536,None,,,,0,0,0,0,0,25,25,25,156.30412109999452,,,,,,,,,,,,,,,,156.28894869994838,156.30412109999452,157.0037548999535,157.0037548999535,157.50342179997824,157.48735949990805,157.48800809995737,157.50342179997824,157.65318309993017,157.85294779995456,157.85294779995456,158.22054729994852,space,1,0.35293169994838536,None,158.22519109991845,158.7356349999318,159.73487099993508,159.7191543999361,,,,,,,,,,,,,,,,,009,002,2025-05-02_20h14.36.651,Cued GoNogo Task,2024.2.4,59.98123783766401,2025-05-02 20h23.10.315235 +0200,
block/CondBlock1.xlsx,You are about to start a block of type 1 trials.,26,26,0,NoGo,NoGo,0.2,0.2,0.05,none,blue,vertical,space,0.9597582999849692,None,None,1,,,,,,0,0,0,0,0,26,26,26,159.73487099993508,,,,,,,,,,,,,,,,159.7195470998995,159.73487099993508,160.43424579990096,160.43424579990096,160.93373469996732,160.91806259995792,160.91885609994642,160.93373469996732,161.13366929988842,161.33343879994936,161.33343879994936,161.81731759989634,None,1,,,161.8197209999198,162.33292039996013,163.3319258999545,163.31612569990102,161.83300939993933,161.83300939993933,,,,,,,,,,,,,,,009,002,2025-05-02_20h14.36.651,Cued GoNogo Task,2024.2.4,59.98123783766401,2025-05-02 20h23.10.315235 +0200,
block/CondBlock1.xlsx,You are about to start a block of type 1 trials.,27,27,0,Go,Go,0.29,0.05,0.2,space,green,horizontal,space,0.9597582999849692,None,space,1,0.34436160000041127,None,,,,0,0,0,0,0,27,27,27,163.3319258999545,,,,,,,,,,,,,,,,163.31642739998642,163.3319258999545,164.03122239990626,164.03122239990626,164.53077589999884,164.51471129991114,164.51520719996188,164.53077589999884,164.8306542999344,165.0140485999873,165.0140485999873,165.3645944999298,space,1,0.34436160000041127,None,165.36759919999167,165.87969029997475,166.87881949997973,166.8633163999766,,,,,,,,,,,,,,,,,009,002,2025-05-02_20h14.36.651,Cued GoNogo Task,2024.2.4,59.98123783766401,2025-05-02 20h23.10.315235 +0200,
block/CondBlock1.xlsx,You are about to start a block of type 1 trials.,28,28,0,Go,Go,0.24,0.2,0.05,space,blue,vertical,space,0.9597582999849692,None,space,1,0.3272297000512481,None,,,,0,0,0,0,0,28,28,28,166.87881949997973,,,,,,,,,,,,,,,,166.8636097999988,166.87881949997973,167.57838099997025,167.57838099997025,168.07775539997965,168.06213819992263,168.06282349990215,168.07775539997965,168.32773269992322,168.51072659995407,168.51072659995407,168.84546679991763,space,1,0.3272297000512481,None,168.84997379989363,169.36000689992215,170.35944229993038,170.3434337999206,,,,,,,,,,,,,,,,,009,002,2025-05-02_20h14.36.651,Cued GoNogo Task,2024.2.4,59.98123783766401,2025-05-02 20h23.10.315235 +0200,
block/CondBlock1.xlsx,You are about to start a block of type 1 trials.,29,29,0,Go,Go,0.15,0.05,0.2,space,green,horizontal,space,0.9597582999849692,None,space,1,0.2101778999203816,None,,,,0,0,0,0,0,29,29,29,170.35944229993038,,,,,,,,,,,,,,,,170.34378509991802,170.35944229993038,171.05883139988873,171.05883139988873,171.55894319992512,171.54257309995592,171.54327929997817,171.55894319992512,171.7084223999409,171.90821539994795,171.90821539994795,172.12582419998944,space,1,0.2101778999203816,None,172.12905949994456,172.64081569993868,173.64006499992684,173.62429399997927,,,,,,,,,,,,,,,,,009,002,2025-05-02_20h14.36.651,Cued GoNogo Task,2024.2.4,59.98123783766401,2025-05-02 20h23.10.315235 +0200,
block/CondBlock1.xlsx,You are about to start a block of type 1 trials.,30,30,0,Go,Go,0.23,0.2,0.05,space,green,vertical,space,0.9597582999849692,None,space,1,0.2792453001020476,None,,,,0,0,0,0,0,30,30,30,173.64006499992684,,,,,,,,,,,,,,,,173.62458519998472,173.64006499992684,174.33940479997545,174.33940479997545,174.83917409996502,174.82295529998373,174.8235064999899,174.83917409996502,175.0723571999697,175.2552818999393,175.2552818999393,175.539451599936,space,1,0.2792453001020476,None,175.5434592999518,176.05472669994924,177.05406459991354,177.03831619990524,,,,,,,,,,,,,,,,,009,002,2025-05-02_20h14.36.651,Cued GoNogo Task,2024.2.4,59.98123783766401,2025-05-02 20h23.10.315235 +0200,
block/CondBlock1.xlsx,You are about to start a block of type 1 trials.,31,31,0,Go,Go,0.28,0.2,0.05,space,green,vertical,space,0.9597582999849692,None,space,1,0.3271720000775531,None,,,,0,0,0,0,0,31,31,31,177.05406459991354,,,,,,,,,,,,,,,,177.03861449996475,177.05406459991354,177.7533597999718,177.7533597999718,178.25289999996312,178.2367487999145,178.23724749998655,178.25289999996312,178.53615019994322,178.71909869997762,178.71909869997762,179.05347629997414,space,1,0.3271720000775531,None,179.0569559999276,179.5686428999761,180.56762439990416,180.55166989995632,,,,,,,,,,,,,,,,,009,002,2025-05-02_20h14.36.651,Cued GoNogo Task,2024.2.4,59.98123783766401,2025-05-02 20h23.10.315235 +0200,
block/CondBlock1.xlsx,You are about to start a block of type 1 trials.,32,32,0,Go,Go,0.19,0.2,0.05,space,green,vertical,space,0.9597582999849692,None,space,1,0.32155889994464815,None,,,,0,0,0,0,0,32,32,32,180.56762439990416,,,,,,,,,,,,,,,,180.55205269996077,180.56762439990416,181.26726149988826,181.26726149988826,181.7666104999371,181.75092709995806,181.75169729988556,181.7666104999371,181.96656539989635,182.1497315999586,182.1497315999586,182.484231099952,space,1,0.32155889994464815,None,182.48841619992163,182.99907279992476,183.99810049997177,183.98213479993865,,,,,,,,,,,,,,,,,009,002,2025-05-02_20h14.36.651,Cued GoNogo Task,2024.2.4,59.98123783766401,2025-05-02 20h23.10.315235 +0200,
block/CondBlock1.xlsx,You are about to start a block of type 1 trials.,33,33,0,Go,Go,0.12,0.2,0.05,space,green,vertical,space,0.9597582999849692,None,space,1,0.30017480009701103,None,,,,0,0,0,0,0,33,33,33,183.99810049997177,,,,,,,,,,,,,,,,183.9824458999792,183.99810049997177,184.69765079999343,184.69765079999343,185.19711509998888,185.1812783998903,185.18193409999367,185.19711509998888,185.33059359993786,185.51350329990964,185.51350329990964,185.83093899989035,space,1,0.30017480009701103,None,185.83462270000018,186.34628099994734,187.3453765999293,187.32940869999584,,,,,,,,,,,,,,,,,009,002,2025-05-02_20h14.36.651,Cued GoNogo Task,2024.2.4,59.98123783766401,2025-05-02 20h23.10.315235 +0200,
block/CondBlock1.xlsx,You are about to start a block of type 1 trials.,34,34,0,Go,Go,0.18,0.2,0.05,space,blue,vertical,space,0.9597582999849692,None,space,1,0.19194469996728003,None,,,,0,0,0,0,0,34,34,34,187.3453765999293,,,,,,,,,,,,,,,,187.3296506999759,187.3453765999293,188.0447515998967,188.0447515998967,188.54444119997788,188.52874049998354,188.52929019997828,188.54444119997788,188.7275303999195,188.9106009999523,188.9106009999523,189.11166929989122,space,1,0.19194469996728003,None,189.11555459990632,189.62680959992576,190.62599879992194,190.61003719992004,,,,,,,,,,,,,,,,,009,002,2025-05-02_20h14.36.651,Cued GoNogo Task,2024.2.4,59.98123783766401,2025-05-02 20h23.10.315235 +0200,
block/CondBlock1.xlsx,You are about to start a block of type 1 trials.,35,35,0,Go,Go,0.21,0.2,0.05,space,blue,vertical,space,0.9597582999849692,None,space,1,0.2526858999626711,None,,,,0,0,0,0,0,35,35,35,190.62599879992194,,,,,,,,,,,,,,,,190.6102631998947,190.62599879992194,191.32539119990543,191.32539119990543,191.82515489996877,191.80924889992457,191.80986209993716,191.82515489996877,192.04143659991678,192.22476679994725,192.22476679994725,192.4925610999344,space,1,0.2526858999626711,None,192.4974553999491,193.00738469988573,194.0066171999788,193.99072989996057,,,,,,,,,,,,,,,,,009,002,2025-05-02_20h14.36.651,Cued GoNogo Task,2024.2.4,59.98123783766401,2025-05-02 20h23.10.315235 +0200,
block/CondBlock1.xlsx,You are about to start a block of type 1 trials.,36,36,0,Go,Go,0.2,0.2,0.05,space,green,vertical,space,0.9597582999849692,None,space,1,0.1925560999661684,None,,,,0,0,0,0,0,36,36,36,194.0066171999788,,,,,,,,,,,,,,,,193.99100489995908,194.0066171999788,194.70602679997683,194.70602679997683,195.2056790998904,195.18965459999163,195.19027669995558,195.2056790998904,195.40527809993364,195.6051791999489,195.6051791999489,195.80623689992353,space,1,0.1925560999661684,None,195.81022639991716,196.3213672999991,197.3205835999688,197.30473439989146,,,,,,,,,,,,,,,,,009,002,2025-05-02_20h14.36.651,Cued GoNogo Task,2024.2.4,59.98123783766401,2025-05-02 20h23.10.315235 +0200,
block/CondBlock1.xlsx,You are about to start a block of type 1 trials.,37,37,0,Go,Go,0.45,0.05,0.2,space,blue,horizontal,space,0.9597582999849692,None,space,1,0.34990300005301833,None,,,,0,0,0,0,0,37,37,37,197.3205835999688,,,,,,,,,,,,,,,,197.3050131999189,197.3205835999688,198.02003249991685,198.02003249991685,198.51947339996696,198.50322799989954,198.50360629998613,198.51947339996696,198.9691651999019,199.1691161999479,199.1691161999479,199.5215968999546,space,1,0.34990300005301833,None,199.52643469988834,200.03497959999368,201.03407389996573,201.01844129990786,,,,,,,,,,,,,,,,,009,002,2025-05-02_20h14.36.651,Cued GoNogo Task,2024.2.4,59.98123783766401,2025-05-02 20h23.10.315235 +0200,
block/CondBlock1.xlsx,You are about to start a block of type 1 trials.,38,38,0,Go,Go,0.13,0.05,0.2,space,blue,horizontal,space,0.9597582999849692,None,space,1,0.21673929993994534,None,,,,0,0,0,0,0,38,38,38,201.03407389996573,,,,,,,,,,,,,,,,201.01880119997077,201.03407389996573,201.7335317999823,201.7335317999823,202.2331992998952,202.21746249997523,202.21810699999332,202.2331992998952,202.36645329999737,202.5662087999517,202.5662087999517,202.78557499998715,space,1,0.21673929993994534,None,202.78996189997997,203.29897779994644,204.29814099997748,204.28270049998537,,,,,,,,,,,,,,,,,009,002,2025-05-02_20h14.36.651,Cued GoNogo Task,2024.2.4,59.98123783766401,2025-05-02 20h23.10.315235 +0200,
block/CondBlock1.xlsx,You are about to start a block of type 1 trials.,39,39,0,Go,Go,0.46,0.2,0.05,space,blue,vertical,space,0.9597582999849692,None,space,1,0.26758139999583364,None,,,,0,0,0,0,0,39,39,39,204.29814099997748,,,,,,,,,,,,,,,,204.2830330999568,204.29814099997748,204.9976527999388,204.9976527999388,205.49716239992995,205.48095599992666,205.48148179997224,205.49716239992995,205.96359529998153,206.1466483999975,206.1466483999975,206.43093109992333,space,1,0.26758139999583364,None,206.43502209999133,206.94586989993695,207.94493639993016,207.9294760999037,,,,,,,,,,,,,,,,,009,002,2025-05-02_20h14.36.651,Cued GoNogo Task,2024.2.4,59.98123783766401,2025-05-02 20h23.10.315235 +0200,
block/CondBlock1.xlsx,You are about to start a block of type 1 trials.,40,40,0,Go,Go,0.29,0.2,0.05,space,blue,vertical,space,0.9597582999849692,None,space,1,0.2504967999411747,None,,,,0,0,0,0,0,40,40,40,207.94493639993016,,,,,,,,,,,,,,,,207.92977939988486,207.94493639993016,208.64461859990843,208.64461859990843,209.14406389999203,209.12832969997544,209.12910109991208,209.14406389999203,209.44382019992918,209.62693539995234,209.62693539995234,209.8945159999421,space,1,0.2504967999411747,None,209.89889919990674,210.40981609991286,211.40895939990878,211.39318549993914,,,,,,,,,,,,,,,,,009,002,2025-05-02_20h14.36.651,Cued GoNogo Task,2024.2.4,59.98123783766401,2025-05-02 20h23.10.315235 +0200,
block/CondBlock1.xlsx,You are about to start a block of type 1 trials.,41,41,0,Go,Go,0.22,0.2,0.05,space,blue,vertical,space,0.9597582999849692,None,space,1,0.2855615000007674,None,,,,0,0,0,0,0,41,41,41,211.40895939990878,,,,,,,,,,,,,,,,211.3934240998933,211.40895939990878,212.10852229990996,212.10852229990996,212.6079475999577,212.5922485999763,212.59301759989467,212.6079475999577,212.84111369994935,213.02424329996575,213.02424329996575,213.32532439997885,space,1,0.2855615000007674,None,213.32974089996424,213.8403740999056,214.83973179990426,214.8234186999034,,,,,,,,,,,,,,,,,009,002,2025-05-02_20h14.36.651,Cued GoNogo Task,2024.2.4,59.98123783766401,2025-05-02 20h23.10.315235 +0200,
block/CondBlock1.xlsx,You are about to start a block of type 1 trials.,42,42,0,Go,Go,0.49,0.2,0.05,space,blue,vertical,space,0.9597582999849692,None,space,1,0.28439819999039173,None,,,,0,0,0,0,0,42,42,42,214.83973179990426,,,,,,,,,,,,,,,,214.823628299986,214.83973179990426,215.53901069995482,215.53901069995482,216.0386823998997,216.02220389992,216.02257949998602,216.0386823998997,216.5381315998966,216.7211845999118,216.7211845999118,217.02246429992374,space,1,0.28439819999039173,None,217.02735259989277,217.5372270999942,218.53638809989206,218.5206672999775,,,,,,,,,,,,,,,,,009,002,2025-05-02_20h14.36.651,Cued GoNogo Task,2024.2.4,59.98123783766401,2025-05-02 20h23.10.315235 +0200,
block/CondBlock1.xlsx,You are about to start a block of type 1 trials.,43,43,0,Go,Go,0.2,0.2,0.05,space,blue,vertical,space,0.9597582999849692,None,space,1,0.3109701999928802,None,,,,0,0,0,0,0,43,43,43,218.53638809989206,,,,,,,,,,,,,,,,218.52100629999768,218.53638809989206,219.23572789994068,219.23572789994068,219.73538569989614,219.71979949995875,219.72059669997543,219.73538569989614,219.9352857999038,220.13515019998886,220.13515019998886,220.45270909997635,space,1,0.3109701999928802,None,220.45636069995817,220.96772169996984,221.96696749993134,221.9514949999284,,,,,,,,,,,,,,,,,009,002,2025-05-02_20h14.36.651,Cued GoNogo Task,2024.2.4,59.98123783766401,2025-05-02 20h23.10.315235 +0200,
block/CondBlock1.xlsx,You are about to start a block of type 1 trials.,44,44,0,Go,Go,0.3,0.05,0.2,space,blue,horizontal,space,0.9597582999849692,None,space,1,0.24492220010142773,None,,,,0,0,0,0,0,44,44,44,221.96696749993134,,,,,,,,,,,,,,,,221.95191269996576,221.96696749993134,222.6663891999051,222.6663891999051,223.16581089992542,223.1498547999654,223.15035839995835,223.16581089992542,223.46566599991638,223.66542149998713,223.66542149998713,223.91636119992472,space,1,0.24492220010142773,None,223.91968789999373,224.43206609995104,,225.4309831999708,,,,,,,,,,,,,,,,,009,002,2025-05-02_20h14.36.651,Cued GoNogo Task,2024.2.4,59.98123783766401,2025-05-02 20h23.10.315235 +0200,
block/CondBlock1.xlsx,You are about to start a block of type 1 trials.,45,45,0,NoGo,NoGo,0.21,0.05,0.2,none,green,horizontal,space,0.9597582999849692,None,space,0,0.27217849995940924,None,,,,0,0,0,0,0,45,45,45,225.44737199996598,,,,,,,,,,,,,,,,225.43131389992777,225.44737199996598,226.13023179990705,226.1469282999169,226.6297338999575,226.61410919995978,226.6148625999922,226.6297338999575,226.84617209993303,227.02951979998033,227.02951979998033,227.31381669989787,space,0,0.27217849995940924,None,227.32308829994872,227.82888749998529,228.8279704999877,228.81195959995966,,,,,,,,,,,,,,,,,009,002,2025-05-02_20h14.36.651,Cued GoNogo Task,2024.2.4,59.98123783766401,2025-05-02 20h23.10.315235 +0200,
block/CondBlock1.xlsx,You are about to start a block of type 1 trials.,46,46,0,NoGo,NoGo,0.45,0.05,0.2,none,blue,horizontal,space,0.9597582999849692,None,space,0,0.28118829999584705,None,,,,0,0,0,0,0,46,46,46,228.8279704999877,,,,,,,,,,,,,,,,228.81222449999768,228.8279704999877,229.52752499992494,229.52752499992494,230.02679479995277,230.01073829992674,230.0111872999696,230.02679479995277,230.4766224999912,230.67651529994328,230.67651529994328,230.96112799993716,space,0,0.28118829999584705,None,230.96158469992224,231.4759443999501,232.47491369990166,232.45906549994834,,,,,,,,,,,,,,,,,009,002,2025-05-02_20h14.36.651,Cued GoNogo Task,2024.2.4,59.98123783766401,2025-05-02 20h23.10.315235 +0200,
block/CondBlock1.xlsx,You are about to start a block of type 1 trials.,47,47,0,Go,Go,0.24,0.05,0.2,space,green,horizontal,space,0.9597582999849692,None,space,1,0.28401870001107454,None,,,,0,0,0,0,0,47,47,47,232.47491369990166,,,,,,,,,,,,,,,,232.45946579996962,232.47491369990166,233.17436609999277,233.17436609999277,233.6741861999035,233.6582087998977,233.65887559996918,233.6741861999035,233.92374009999912,234.1070161999669,234.1070161999669,234.40767749992665,space,1,0.28401870001107454,None,234.4110803999938,234.92288719990756,235.92210169997998,235.90613799996208,,,,,,,,,,,,,,,,,009,002,2025-05-02_20h14.36.651,Cued GoNogo Task,2024.2.4,59.98123783766401,2025-05-02 20h23.10.315235 +0200,
block/CondBlock1.xlsx,You are about to start a block of type 1 trials.,48,48,0,NoGo,NoGo,0.15,0.2,0.05,none,blue,vertical,space,0.9597582999849692,None,None,1,,,,,,0,0,0,0,0,48,48,48,235.92210169997998,,,,,,,,,,,,,,,,235.9063865999924,235.92210169997998,236.62154799990822,236.62154799990822,237.1211474998854,237.10499479994178,237.10570539999753,237.1211474998854,237.2710392998997,237.47102069994435,237.47102069994435,237.95468109997455,None,1,,,237.9572133999318,238.4700070999097,239.46922199998517,239.45329019997735,237.97031729994342,237.97031729994342,,,,,,,,,,,,,,,009,002,2025-05-02_20h14.36.651,Cued GoNogo Task,2024.2.4,59.98123783766401,2025-05-02 20h23.10.315235 +0200,
block/CondBlock1.xlsx,You are about to start a block of type 1 trials.,49,49,0,Go,Go,0.12,0.05,0.2,space,blue,horizontal,space,0.9597582999849692,None,space,1,0.3887115999823436,None,,,,0,0,0,0,0,49,49,49,239.46922199998517,,,,,,,,,,,,,,,,239.4535564999096,239.46922199998517,240.1685257999925,240.1685257999925,240.66825829993468,240.65243359992746,240.65312919998541,240.66825829993468,240.80145619995892,240.9847045999486,240.9847045999486,241.38528659997974,space,1,0.3887115999823436,None,241.38871359999757,241.900584399933,242.89956519997213,242.8837619998958,,,,,,,,,,,,,,,,,009,002,2025-05-02_20h14.36.651,Cued GoNogo Task,2024.2.4,59.98123783766401,2025-05-02 20h23.10.315235 +0200,
block/CondBlock1.xlsx,You are about to start a block of type 1 trials.,50,50,0,Go,Go,0.22,0.2,0.05,space,green,vertical,space,0.9597582999849692,None,space,1,0.2426524000475183,None,,,,0,0,0,0,0,50,50,50,242.89956519997213,,,,,,,,,,,,,,,,242.88405019999482,242.89956519997213,243.59908109996468,243.59908109996468,244.09858549991623,244.08283209998626,244.08341529988684,244.09858549991623,244.3318961999612,244.51498309988528,244.51498309988528,244.76580679998733,space,1,0.2426524000475183,None,244.76909459999297,245.28112879989203,246.28037179994863,246.26420799992047,,,,,,,,,,,,,,,,,009,002,2025-05-02_20h14.36.651,Cued GoNogo Task,2024.2.4,59.98123783766401,2025-05-02 20h23.10.315235 +0200,
block/CondBlock1.xlsx,You are about to start a block of type 1 trials.,51,51,0,Go,Go,0.28,0.05,0.2,space,green,horizontal,space,0.9597582999849692,None,space,1,0.2930157999508083,None,,,,0,0,0,0,0,51,51,51,246.28037179994863,,,,,,,,,,,,,,,,246.26443189999554,246.28037179994863,246.9799002999207,246.9799002999207,247.4791693999432,247.46338879992254,247.4640651999507,247.4791693999432,247.7623440999305,247.94548939995002,247.94548939995002,248.24647579994053,space,1,0.2930157999508083,None,248.25071599998046,248.76154109998606,249.7608237999957,249.74502929998562,,,,,,,,,,,,,,,,,009,002,2025-05-02_20h14.36.651,Cued GoNogo Task,2024.2.4,59.98123783766401,2025-05-02 20h23.10.315235 +0200,
block/CondBlock1.xlsx,You are about to start a block of type 1 trials.,52,52,0,Go,Go,0.23,0.2,0.05,space,green,vertical,space,0.9597582999849692,None,space,1,0.22977400000672787,None,,,,0,0,0,0,0,52,52,52,249.7608237999957,,,,,,,,,,,,,,,,249.74536829988938,249.7608237999957,250.46008429990616,250.46008429990616,250.9595271999715,250.94352279999293,250.9439613999566,250.9595271999715,251.1925505999243,251.37591709999833,251.37591709999833,251.61041809991002,space,1,0.22977400000672787,None,251.61433469993062,252.12535999994725,253.12457559991162,253.10858229990117,,,,,,,,,,,,,,,,,009,002,2025-05-02_20h14.36.651,Cued GoNogo Task,2024.2.4,59.98123783766401,2025-05-02 20h23.10.315235 +0200,
block/CondBlock1.xlsx,You are about to start a block of type 1 trials.,53,53,0,Go,Go,0.22,0.05,0.2,space,green,horizontal,space,0.9597582999849692,None,space,1,0.24310800002422184,None,,,,0,0,0,0,0,53,53,53,253.12457559991162,,,,,,,,,,,,,,,,253.1088070999831,253.12457559991162,253.82418499991763,253.82418499991763,254.32352329988498,254.30794729990885,254.30870929989032,254.32352329988498,254.5567743999418,254.7398014999926,254.7398014999926,254.99076999991667,space,1,0.24310800002422184,None,254.9940937999636,255.50597999989986,256.50534699996933,256.4893779999111,,,,,,,,,,,,,,,,,009,002,2025-05-02_20h14.36.651,Cued GoNogo Task,2024.2.4,59.98123783766401,2025-05-02 20h23.10.315235 +0200,
block/CondBlock1.xlsx,You are about to start a block of type 1 trials.,54,54,0,NoGo,NoGo,0.14,0.05,0.2,none,green,horizontal,space,0.9597582999849692,None,None,1,,,,,,0,0,0,0,0,54,54,54,256.50534699996933,,,,,,,,,,,,,,,,256.48970979999285,256.50534699996933,257.20473229989875,257.20473229989875,257.70408889988903,257.6883448999142,257.6891547999112,257.70408889988903,257.8542242998956,258.03738919994794,258.03738919994794,258.5213132998906,None,1,,,258.52577909990214,259.0364112999523,260.035602799966,260.0196721999673,258.5370326999109,258.5370326999109,,,,,,,,,,,,,,,009,002,2025-05-02_20h14.36.651,Cued GoNogo Task,2024.2.4,59.98123783766401,2025-05-02 20h23.10.315235 +0200,
block/CondBlock1.xlsx,You are about to start a block of type 1 trials.,55,55,0,Go,Go,0.15,0.2,0.05,space,blue,vertical,space,0.9597582999849692,None,space,1,0.22153020009864122,None,,,,0,0,0,0,0,55,55,55,260.035602799966,,,,,,,,,,,,,,,,260.0199744999409,260.035602799966,260.7349019999383,260.7349019999383,261.234703599941,261.218391399947,261.2187804999994,261.234703599941,261.38465369993355,261.5844885999104,261.5844885999104,261.8189306999557,space,1,0.22153020009864122,None,261.8230893999571,262.3337473999709,263.3329687999794,263.31697059993166,,,,,,,,,,,,,,,,,009,002,2025-05-02_20h14.36.651,Cued GoNogo Task,2024.2.4,59.98123783766401,2025-05-02 20h23.10.315235 +0200,
block/CondBlock1.xlsx,You are about to start a block of type 1 trials.,56,56,0,Go,Go,0.47,0.2,0.05,space,blue,vertical,space,0.9597582999849692,None,space,1,0.27980889996979386,None,,,,0,0,0,0,0,56,56,56,263.3329687999794,,,,,,,,,,,,,,,,263.3172925999388,263.3329687999794,264.0323048999999,264.0323048999999,264.53189609991387,264.5165586998919,264.5172750999918,264.53189609991387,265.0147703998955,265.1982041998999,265.1982041998999,265.4824590999633,space,1,0.27980889996979386,None,265.485561999958,265.99758879991714,,266.9967979999492,,,,,,,,,,,,,,,,,009,002,2025-05-02_20h14.36.651,Cued GoNogo Task,2024.2.4,59.98123783766401,2025-05-02 20h23.10.315235 +0200,
block/CondBlock1.xlsx,You are about to start a block of type 1 trials.,57,57,0,NoGo,NoGo,0.42,0.2,0.05,none,green,vertical,space,0.9597582999849692,None,None,1,,,,,,0,0,0,0,0,57,57,57,267.01345109997783,,,,,,,,,,,,,,,,266.9971490999451,267.01345109997783,267.6957349999575,267.72922009998,268.19560059998184,268.17973929992877,268.1804142999463,268.19560059998184,268.6285656999098,268.81174799997825,268.81174799997825,269.29527769994456,None,1,,,269.29769999999553,269.81112189998385,,270.8101765998872,269.3111767999362,269.3111767999362,,,,,,,,,,,,,,,009,002,2025-05-02_20h14.36.651,Cued GoNogo Task,2024.2.4,59.98123783766401,2025-05-02 20h23.10.315235 +0200,
block/CondBlock1.xlsx,You are about to start a block of type 1 trials.,58,58,0,Go,Go,0.22,0.05,0.2,space,green,horizontal,space,0.9597582999849692,None,space,1,0.25293399998918176,None,,,,0,0,0,0,0,58,58,58,270.8265759999631,,,,,,,,,,,,,,,,270.8105721999891,270.8265759999631,271.5096061999211,271.52648229990155,272.0089987999527,271.9931335999863,271.9936999999918,272.0089987999527,272.2423338999506,272.42562739993446,272.42562739993446,272.692708699964,space,1,0.25293399998918176,None,272.6964965999359,273.2080288999714,274.20742879994214,274.1912418999709,,,,,,,,,,,,,,,,,009,002,2025-05-02_20h14.36.651,Cued GoNogo Task,2024.2.4,59.98123783766401,2025-05-02 20h23.10.315235 +0200,
block/CondBlock1.xlsx,You are about to start a block of type 1 trials.,59,59,0,Go,Go,0.3,0.2,0.05,space,blue,vertical,space,0.9597582999849692,None,space,1,0.27593220002017915,None,,,,0,0,0,0,0,59,59,59,274.20742879994214,,,,,,,,,,,,,,,,274.19148529996164,274.20742879994214,274.90667979989666,274.90667979989666,275.40632769989315,275.3903573999414,275.39098839997314,275.40632769989315,275.70613719988614,275.9060216998914,275.9060216998914,276.190282399999,space,1,0.27593220002017915,None,276.19477499998175,276.70535119995475,277.7044045999646,277.68904009996913,,,,,,,,,,,,,,,,,009,002,2025-05-02_20h14.36.651,Cued GoNogo Task,2024.2.4,59.98123783766401,2025-05-02 20h23.10.315235 +0200,
block/CondBlock1.xlsx,You are about to start a block of type 1 trials.,60,60,0,NoGo,NoGo,0.24,0.2,0.05,none,blue,vertical,space,0.9597582999849692,None,space,0,0.41317529999651015,None,,,,0,0,0,0,0,60,60,60,277.7044045999646,,,,,,,,,,,,,,,,277.68929049989674,277.7044045999646,278.4038932999829,278.4038932999829,278.9033835999435,278.8878350999439,278.88827089988627,278.9033835999435,279.15329209994525,279.3364862999879,279.3364862999879,279.7539538999554,space,0,0.41317529999651015,None,279.758761499892,280.26894119998906,281.26814770000055,281.25268389994744,,,,,,,,,,,,,,,,,009,002,2025-05-02_20h14.36.651,Cued GoNogo Task,2024.2.4,59.98123783766401,2025-05-02 20h23.10.315235 +0200,
block/CondBlock1.xlsx,You are about to start a block of type 1 trials.,61,61,0,NoGo,NoGo,0.1,0.2,0.05,none,green,vertical,space,0.9597582999849692,None,space,0,0.21572600002400577,None,,,,0,0,0,0,0,61,61,61,281.26814770000055,,,,,,,,,,,,,,,,281.2530156999128,281.26814770000055,281.96768539992627,281.96768539992627,282.46706009993795,282.4511790999677,282.45170619990677,282.46706009993795,282.56712639995385,282.7669341999572,282.7669341999572,282.9856749998871,space,0,0.21572600002400577,None,282.9861329999985,283.49983839993365,284.49876179988496,284.48340979998466,,,,,,,,,,,,,,,,,009,002,2025-05-02_20h14.36.651,Cued GoNogo Task,2024.2.4,59.98123783766401,2025-05-02 20h23.10.315235 +0200,
block/CondBlock1.xlsx,You are about to start a block of type 1 trials.,62,62,0,Go,Go,0.45,0.05,0.2,space,blue,horizontal,space,0.9597582999849692,None,space,1,0.36223769991192967,None,,,,0,0,0,0,0,62,62,62,284.49876179988496,,,,,,,,,,,,,,,,284.4838222999824,284.49876179988496,285.19821579998825,285.19821579998825,285.6979090999812,285.68196129996795,285.68257629999425,285.6979090999812,286.14736359997187,286.34736289992,286.34736289992,286.71494369988795,space,1,0.36223769991192967,None,286.71849659993313,287.22992809989955,288.22911729989573,288.213168199989,,,,,,,,,,,,,,,,,009,002,2025-05-02_20h14.36.651,Cued GoNogo Task,2024.2.4,59.98123783766401,2025-05-02 20h23.10.315235 +0200,
block/CondBlock1.xlsx,You are about to start a block of type 1 trials.,63,63,0,Go,Go,0.1,0.05,0.2,space,green,horizontal,space,0.9597582999849692,None,space,1,0.3666644999757409,None,,,,0,0,0,0,0,63,63,63,288.22911729989573,,,,,,,,,,,,,,,,288.2134791999124,288.22911729989573,288.9285601999145,288.9285601999145,289.4281785999192,289.4123548999196,289.4130549998954,289.4281785999192,289.52800729998853,289.7277892999118,289.7277892999118,290.0969420999754,space,1,0.3666644999757409,None,290.1009924999671,290.6103872999083,291.60957589989994,291.5936273999978,,,,,,,,,,,,,,,,,009,002,2025-05-02_20h14.36.651,Cued GoNogo Task,2024.2.4,59.98123783766401,2025-05-02 20h23.10.315235 +0200,
block/CondBlock1.xlsx,You are about to start a block of type 1 trials.,64,64,0,Go,Go,0.19,0.05,0.2,space,blue,horizontal,space,0.9597582999849692,None,space,1,0.3416145999217406,None,,,,0,0,0,0,0,64,64,64,291.60957589989994,,,,,,,,,,,,,,,,291.5938756999094,291.60957589989994,292.3090973999351,292.3090973999351,292.80855679989327,292.79262399999425,292.79324569995515,292.80855679989327,293.0085627998924,293.19181489991024,293.19181489991024,293.5424649999477,space,1,0.3416145999217406,None,293.5460630999878,294.0576754999347,295.0568674999522,295.04082479991484,,,,,,,,,,,,,,,,,009,002,2025-05-02_20h14.36.651,Cued GoNogo Task,2024.2.4,59.98123783766401,2025-05-02 20h23.10.315235 +0200,
block/CondBlock1.xlsx,You are about to start a block of type 1 trials.,65,65,0,Go,Go,0.21,0.2,0.05,space,blue,vertical,space,0.9597582999849692,None,space,1,0.2300252999411896,None,,,,0,0,0,0,0,65,65,65,295.0568674999522,,,,,,,,,,,,,,,,295.04106929991394,295.0568674999522,295.75625889992807,295.75625889992807,296.25578889995813,296.24025619996246,296.2410420998931,296.25578889995813,296.47229039995,296.6557164998958,296.6557164998958,296.889921199996,space,1,0.2300252999411896,None,296.89423259999603,297.40477689995896,298.4041702999966,298.3882715998916,,,,,,,,,,,,,,,,,009,002,2025-05-02_20h14.36.651,Cued GoNogo Task,2024.2.4,59.98123783766401,2025-05-02 20h23.10.315235 +0200,
block/CondBlock1.xlsx,You are about to start a block of type 1 trials.,66,66,0,Go,Go,0.18,0.05,0.2,space,blue,horizontal,space,0.9597582999849692,None,space,1,0.39622979995328933,None,,,,0,0,0,0,0,66,66,66,298.4041702999966,,,,,,,,,,,,,,,,298.3885478999,298.4041702999966,299.1035342999967,299.1035342999967,299.6031090999022,299.5871772998944,299.5878199998988,299.6031090999022,299.7863243999891,299.9695998999523,299.9695998999523,300.3700471998891,space,1,0.39622979995328933,None,300.37369669997133,300.88565879990347,,301.88471839996055,,,,,,,,,,,,,,,,,009,002,2025-05-02_20h14.36.651,Cued GoNogo Task,2024.2.4,59.98123783766401,2025-05-02 20h23.10.315235 +0200,
block/CondBlock1.xlsx,You are about to start a block of type 1 trials.,67,67,0,Go,Go,0.29,0.2,0.05,space,green,vertical,space,0.9597582999849692,None,space,1,0.23980019998271018,None,,,,0,0,0,0,0,67,67,67,301.9011235999642,,,,,,,,,,,,,,,,301.88501539989375,301.9011235999642,302.5839881999418,302.60060479992535,303.08394079993013,303.06784119992517,303.06851969996933,303.08394079993013,303.38345579989254,303.56647669989616,303.56647669989616,303.81748419988435,space,1,0.23980019998271018,None,303.82025849993806,304.33255169994663,305.3317541999277,305.31555279996246,,,,,,,,,,,,,,,,,009,002,2025-05-02_20h14.36.651,Cued GoNogo Task,2024.2.4,59.98123783766401,2025-05-02 20h23.10.315235 +0200,
block/CondBlock1.xlsx,You are about to start a block of type 1 trials.,68,68,0,NoGo,NoGo,0.24,0.2,0.05,none,blue,vertical,space,0.9597582999849692,None,space,0,0.19449949997942895,None,,,,0,0,0,0,0,68,68,68,305.3317541999277,,,,,,,,,,,,,,,,305.3158206999069,305.3317541999277,306.0312180999899,306.0312180999899,306.53063539997675,306.5149056999944,306.5156027999474,306.53063539997675,306.7805360999191,306.96365109994076,306.96365109994076,307.1646572999889,space,0,0.19449949997942895,None,307.1694025999168,307.6797833999153,308.67885499994736,308.6631594999926,,,,,,,,,,,,,,,,,009,002,2025-05-02_20h14.36.651,Cued GoNogo Task,2024.2.4,59.98123783766401,2025-05-02 20h23.10.315235 +0200,
block/CondBlock1.xlsx,You are about to start a block of type 1 trials.,69,69,0,Go,Go,0.27,0.05,0.2,space,green,horizontal,space,0.9597582999849692,None,space,1,0.2619156000437215,None,,,,0,0,0,0,0,69,69,69,308.67885499994736,,,,,,,,,,,,,,,,308.6634171999758,308.67885499994736,309.3784301999258,309.3784301999258,309.8777928999625,309.8619140998926,309.86244229995646,309.8777928999625,310.1610223999014,310.34423319995403,310.34423319995403,310.6114881999092,space,1,0.2619156000437215,None,310.6148216999136,311.12688289990183,312.1260604999261,312.1099735999014,,,,,,,,,,,,,,,,,009,002,2025-05-02_20h14.36.651,Cued GoNogo Task,2024.2.4,59.98123783766401,2025-05-02 20h23.10.315235 +0200,
block/CondBlock1.xlsx,You are about to start a block of type 1 trials.,70,70,0,Go,Go,0.25,0.2,0.05,space,green,vertical,space,0.9597582999849692,None,space,1,0.21546189999207854,None,,,,0,0,0,0,0,70,70,70,312.1260604999261,,,,,,,,,,,,,,,,312.1102017998928,312.1260604999261,312.82552619988564,312.82552619988564,313.3250561999157,313.3092544999672,313.30992709996644,313.3250561999157,313.57507519994397,313.77478529990185,313.77478529990185,313.9927278999239,space,1,0.21546189999207854,None,313.9958460999187,314.5075203999877,315.5065472999122,315.49070819991175,,,,,,,,,,,,,,,,,009,002,2025-05-02_20h14.36.651,Cued GoNogo Task,2024.2.4,59.98123783766401,2025-05-02 20h23.10.315235 +0200,
block/CondBlock1.xlsx,You are about to start a block of type 1 trials.,71,71,0,Go,Go,0.28,0.05,0.2,space,green,horizontal,space,0.9597582999849692,None,space,1,0.2667310000397265,None,,,,0,0,0,0,0,71,71,71,315.5065472999122,,,,,,,,,,,,,,,,315.4909587999573,315.5065472999122,316.2059546998935,316.2059546998935,316.70564119995106,316.6898900999222,316.690604699892,316.70564119995106,316.98876909993123,317.17196339997463,317.17196339997463,317.44163919996936,space,1,0.2667310000397265,None,317.4465188999893,317.9547223999398,318.9538309999043,318.93807209993247,,,,,,,,,,,,,,,,,009,002,2025-05-02_20h14.36.651,Cued GoNogo Task,2024.2.4,59.98123783766401,2025-05-02 20h23.10.315235 +0200,
block/CondBlock1.xlsx,You are about to start a block of type 1 trials.,72,72,0,Go,Go,0.14,0.05,0.2,space,blue,horizontal,space,0.9597582999849692,None,space,1,0.29560479999054223,None,,,,0,0,0,0,0,72,72,72,318.9538309999043,,,,,,,,,,,,,,,,318.9383738999022,318.9538309999043,319.65323359996546,319.65323359996546,320.1529407999478,320.1373947999673,320.13819359999616,320.1529407999478,320.3029069999466,320.4860780999297,320.4860780999297,320.78693409997504,space,1,0.29560479999054223,None,320.79074609989766,321.3019198999973,322.30126669991296,322.2851644998882,,,,,,,,,,,,,,,,,009,002,2025-05-02_20h14.36.651,Cued GoNogo Task,2024.2.4,59.98123783766401,2025-05-02 20h23.10.315235 +0200,
block/CondBlock1.xlsx,You are about to start a block of type 1 trials.,73,73,0,Go,Go,0.11,0.05,0.2,space,blue,horizontal,space,0.9597582999849692,None,space,1,0.2712593999458477,None,,,,0,0,0,0,0,73,73,73,322.30126669991296,,,,,,,,,,,,,,,,322.2854213999817,322.30126669991296,323.00055089988746,323.00055089988746,323.49997859995347,323.4840763999382,323.4846747999545,323.49997859995347,323.61677259998396,323.79983029991854,323.79983029991854,324.0841827999102,space,1,0.2712593999458477,None,324.08822189993225,324.5993184999097,325.598317499971,325.5823934999062,,,,,,,,,,,,,,,,,009,002,2025-05-02_20h14.36.651,Cued GoNogo Task,2024.2.4,59.98123783766401,2025-05-02 20h23.10.315235 +0200,
block/CondBlock1.xlsx,You are about to start a block of type 1 trials.,74,74,0,Go,Go,0.22,0.2,0.05,space,blue,vertical,space,0.9597582999849692,None,space,1,0.23206710000522435,None,,,,0,0,0,0,0,74,74,74,325.598317499971,,,,,,,,,,,,,,,,325.5826169999782,325.598317499971,326.29781639995053,326.29781639995053,326.7973396999296,326.7813190999441,326.7819125999231,326.7973396999296,327.03040969988797,327.2137304999633,327.2137304999633,327.44888099993113,space,1,0.23206710000522435,None,327.45300839992706,327.9631026999559,328.9622566999169,328.9462223999435,,,,,,,,,,,,,,,,,009,002,2025-05-02_20h14.36.651,Cued GoNogo Task,2024.2.4,59.98123783766401,2025-05-02 20h23.10.315235 +0200,
block/CondBlock1.xlsx,You are about to start a block of type 1 trials.,75,75,0,Go,Go,0.26,0.05,0.2,space,blue,horizontal,space,0.9597582999849692,None,space,1,0.2823244999162853,None,,,,0,0,0,0,0,75,75,75,328.9622566999169,,,,,,,,,,,,,,,,328.94644789991435,328.9622566999169,329.6617286999244,329.6617286999244,330.16118069994263,330.14563169993926,330.1463937999215,330.16118069994263,330.42760669998825,330.61091969988775,330.61091969988775,330.89568249997683,space,1,0.2823244999162853,None,330.89969659992494,331.41015249991324,332.4093885999173,332.393596699927,,,,,,,,,,,,,,,,,009,002,2025-05-02_20h14.36.651,Cued GoNogo Task,2024.2.4,59.98123783766401,2025-05-02 20h23.10.315235 +0200,
block/CondBlock1.xlsx,You are about to start a block of type 1 trials.,76,76,0,Go,Go,0.14,0.2,0.05,space,green,vertical,space,0.9597582999849692,None,space,1,0.1759801999432966,None,,,,0,0,0,0,0,76,76,76,332.4093885999173,,,,,,,,,,,,,,,,332.3939456999069,332.4093885999173,333.1087777999928,333.1087777999928,333.6083348999964,333.5924977998948,333.59314619994257,333.6083348999964,333.7582685999805,333.9414711999707,333.9414711999707,334.1260563998949,space,1,0.1759801999432966,None,334.1294148999732,334.64097539999057,335.6400614999002,335.6241174999159,,,,,,,,,,,,,,,,,009,002,2025-05-02_20h14.36.651,Cued GoNogo Task,2024.2.4,59.98123783766401,2025-05-02 20h23.10.315235 +0200,
block/CondBlock1.xlsx,You are about to start a block of type 1 trials.,77,77,0,Go,Go,0.18,0.05,0.2,space,green,horizontal,space,0.9597582999849692,None,space,1,0.32842449995223433,None,,,,0,0,0,0,0,77,77,77,335.6400614999002,,,,,,,,,,,,,,,,335.62436779995915,335.6400614999002,336.33942089998163,336.33942089998163,336.8390718998853,336.8235514999833,336.82416579988785,336.8390718998853,337.0223358999938,337.2053768999176,337.2053768999176,337.5395438999403,space,1,0.32842449995223433,None,337.54566399997566,338.0548853999935,339.0539308999432,339.03803729999345,,,,,,,,,,,,,,,,,009,002,2025-05-02_20h14.36.651,Cued GoNogo Task,2024.2.4,59.98123783766401,2025-05-02 20h23.10.315235 +0200,
block/CondBlock1.xlsx,You are about to start a block of type 1 trials.,78,78,0,NoGo,NoGo,0.27,0.05,0.2,none,blue,horizontal,space,0.9597582999849692,None,space,0,0.21487480006180704,None,,,,0,0,0,0,0,78,78,78,339.0539308999432,,,,,,,,,,,,,,,,339.0382942999713,339.0539308999432,339.7532524999697,339.7532524999697,340.2530086999759,340.23666999989655,340.23708219989203,340.2530086999759,340.5360748999519,340.71931929991115,340.71931929991115,340.9375889999792,space,0,0.21487480006180704,None,340.9425367999356,341.45192699995823,342.4512926999014,342.4352472999599,,,,,,,,,,,,,,,,,009,002,2025-05-02_20h14.36.651,Cued GoNogo Task,2024.2.4,59.98123783766401,2025-05-02 20h23.10.315235 +0200,
block/CondBlock1.xlsx,You are about to start a block of type 1 trials.,79,79,0,NoGo,NoGo,0.26,0.2,0.05,none,blue,vertical,space,0.9597582999849692,None,space,0,0.29022610001266,None,,,,0,0,0,0,0,79,79,79,342.4512926999014,,,,,,,,,,,,,,,,342.4355333999265,342.4512926999014,343.15083419997245,343.15083419997245,343.65008979989216,343.6343076999765,343.63509819994215,343.65008979989216,343.9165374999866,344.09971069998574,344.09971069998574,344.40099749993533,space,0,0.29022610001266,None,344.4014937999891,344.91570629994385,345.91493419988547,345.89915019995533,,,,,,,,,,,,,,,,,009,002,2025-05-02_20h14.36.651,Cued GoNogo Task,2024.2.4,59.98123783766401,2025-05-02 20h23.10.315235 +0200,
block/CondBlock1.xlsx,You are about to start a block of type 1 trials.,80,80,0,Go,Go,0.22,0.2,0.05,space,green,vertical,space,0.9597582999849692,None,space,1,0.3082958000013605,None,,,,0,0,0,0,0,80,80,80,345.91493419988547,,,,,,,,,,,,,,,,345.89946190000046,345.91493419988547,346.6142327999696,346.6142327999696,347.1140317999525,347.098190199933,347.09882859990466,347.1140317999525,347.3471487999195,347.53031409997493,347.53031409997493,347.8477170999395,space,1,0.3082958000013605,None,347.8516653999686,348.3630521999439,349.3622915999731,349.34630349988583,,,,,,,,,,,,,,,,,009,002,2025-05-02_20h14.36.651,Cued GoNogo Task,2024.2.4,59.98123783766401,2025-05-02 20h23.10.315235 +0200,
block/CondBlock1.xlsx,You are about to start a block of type 1 trials.,81,81,0,Go,Go,0.5,0.2,0.05,space,green,vertical,space,0.9597582999849692,None,space,1,0.38450039993040264,None,,,,0,0,0,0,0,81,81,81,349.3622915999731,,,,,,,,,,,,,,,,349.34658519993536,349.3622915999731,350.06166469992604,350.06166469992604,350.5611584999133,350.54496649990324,350.5453570999671,350.5611584999133,351.0606782999821,351.26085829990916,351.26085829990916,351.6614889999619,space,1,0.38450039993040264,None,351.66545709990896,352.17650219995994,353.17561369994655,353.15957989997696,,,,,,,,,,,,,,,,,009,002,2025-05-02_20h14.36.651,Cued GoNogo Task,2024.2.4,59.98123783766401,2025-05-02 20h23.10.315235 +0200,
block/CondBlock1.xlsx,You are about to start a block of type 1 trials.,82,82,0,Go,Go,0.43,0.05,0.2,space,green,horizontal,space,0.9597582999849692,None,space,1,0.31144120008684695,None,,,,0,0,0,0,0,82,82,82,353.17561369994655,,,,,,,,,,,,,,,,353.1598358999472,353.17561369994655,353.87506759993266,353.87506759993266,354.3747487999499,354.35901189991273,354.3596258999314,354.3747487999499,354.8077336999122,354.99082719988655,354.99082719988655,355.30855939991307,space,1,0.31144120008684695,None,355.31263209995814,355.82352929993067,356.8225985999452,356.80705569998827,,,,,,,,,,,,,,,,,009,002,2025-05-02_20h14.36.651,Cued GoNogo Task,2024.2.4,59.98123783766401,2025-05-02 20h23.10.315235 +0200,
block/CondBlock1.xlsx,You are about to start a block of type 1 trials.,83,83,0,Go,Go,0.25,0.2,0.05,space,green,vertical,space,0.9597582999849692,None,space,1,0.28752030001487583,None,,,,0,0,0,0,0,83,83,83,356.8225985999452,,,,,,,,,,,,,,,,356.8075117999688,356.8225985999452,357.52204409998376,357.52204409998376,358.02172329998575,358.005654699984,358.0062748999335,358.02172329998575,358.2714745999547,358.4714212999679,358.4714212999679,358.7720472998917,space,1,0.28752030001487583,None,358.77553349989466,359.28726519993506,360.28643309988547,360.2706781999441,,,,,,,,,,,,,,,,,009,002,2025-05-02_20h14.36.651,Cued GoNogo Task,2024.2.4,59.98123783766401,2025-05-02 20h23.10.315235 +0200,
block/CondBlock1.xlsx,You are about to start a block of type 1 trials.,84,84,0,NoGo,NoGo,0.14,0.2,0.05,none,green,vertical,space,0.9597582999849692,None,space,0,0.29148340004030615,None,,,,0,0,0,0,0,84,84,84,360.28643309988547,,,,,,,,,,,,,,,,360.2709781999001,360.28643309988547,360.9860550999874,360.9860550999874,361.48545819998253,361.46946239995304,361.46999509993475,361.48545819998253,361.63550539989956,361.81840619992,361.81840619992,362.1198872999521,space,0,0.29148340004030615,None,362.12555659993086,362.63448339991737,363.63400429999456,363.6176916999975,,,,,,,,,,,,,,,,,009,002,2025-05-02_20h14.36.651,Cued GoNogo Task,2024.2.4,59.98123783766401,2025-05-02 20h23.10.315235 +0200,
block/CondBlock1.xlsx,You are about to start a block of type 1 trials.,85,85,0,Go,Go,0.2,0.05,0.2,space,blue,horizontal,space,0.9597582999849692,None,space,1,0.38217269990127534,None,,,,0,0,0,0,0,85,85,85,363.63400429999456,,,,,,,,,,,,,,,,363.61795059998985,363.63400429999456,364.33318299998064,364.33318299998064,364.8328362999018,364.8174015999539,364.8182025999995,364.8328362999018,365.03250779991504,365.23227399995085,365.23227399995085,365.61718169995584,space,1,0.38217269990127534,None,365.6208559999941,366.13163209997583,367.1307444999693,367.11510329996236,,,,,,,,,,,,,,,,,009,002,2025-05-02_20h14.36.651,Cued GoNogo Task,2024.2.4,59.98123783766401,2025-05-02 20h23.10.315235 +0200,
block/CondBlock1.xlsx,You are about to start a block of type 1 trials.,86,86,0,Go,Go,0.16,0.2,0.05,space,blue,vertical,space,0.9597582999849692,None,space,1,0.35078910004813224,None,,,,0,0,0,0,0,86,86,86,367.1307444999693,,,,,,,,,,,,,,,,367.11540289991535,367.1307444999693,367.83038919989485,367.83038919989485,368.32989479997195,368.31416319997516,368.3146835999796,368.32989479997195,368.49626849999186,368.67954089993145,368.67954089993145,369.0474410998868,space,1,0.35078910004813224,None,369.05248889990617,369.5621296999743,370.56140229990706,370.5452886999119,,,,,,,,,,,,,,,,,009,002,2025-05-02_20h14.36.651,Cued GoNogo Task,2024.2.4,59.98123783766401,2025-05-02 20h23.10.315235 +0200,
block/CondBlock1.xlsx,You are about to start a block of type 1 trials.,87,87,0,Go,Go,0.41,0.2,0.05,space,green,vertical,space,0.9597582999849692,None,space,1,0.3906946999486536,None,,,,0,0,0,0,0,87,87,87,370.56140229990706,,,,,,,,,,,,,,,,370.5455898999935,370.56140229990706,371.2608071999857,371.2608071999857,371.76045649999287,371.7447302999208,371.74552649992984,371.76045649999287,372.1768041999312,372.35999159992207,372.35999159992207,372.7605223999126,space,1,0.3906946999486536,None,372.76420679991134,373.27579719992355,374.2748850999633,374.2589140998898,,,,,,,,,,,,,,,,,009,002,2025-05-02_20h14.36.651,Cued GoNogo Task,2024.2.4,59.98123783766401,2025-05-02 20h23.10.315235 +0200,
block/CondBlock1.xlsx,You are about to start a block of type 1 trials.,88,88,0,NoGo,NoGo,0.15,0.2,0.05,none,green,vertical,space,0.9597582999849692,None,None,1,,,,,,0,0,0,0,0,88,88,88,374.2748850999633,,,,,,,,,,,,,,,,374.2591567999916,374.2748850999633,374.9743790999055,374.9743790999055,375.4739770999877,375.45813069993164,375.4587969999993,375.4739770999877,375.623898299993,375.8238538999576,375.8238538999576,376.307126199943,None,1,,,376.308816799894,376.8227485999232,377.82202199997846,377.80637759994715,376.3232308999868,376.3232308999868,,,,,,,,,,,,,,,009,002,2025-05-02_20h14.36.651,Cued GoNogo Task,2024.2.4,59.98123783766401,2025-05-02 20h23.10.315235 +0200,
block/CondBlock1.xlsx,You are about to start a block of type 1 trials.,89,89,0,Go,Go,0.24,0.05,0.2,space,blue,horizontal,space,0.9597582999849692,None,space,1,0.2564036000985652,None,,,,0,0,0,0,0,89,89,89,377.82202199997846,,,,,,,,,,,,,,,,377.8067039999878,377.82202199997846,378.5215231999755,378.5215231999755,379.02128339989576,379.00509059999604,379.00572599994484,379.02128339989576,379.27080399997067,379.4543204999063,379.4543204999063,379.7214875998907,space,1,0.2564036000985652,None,379.7254273999715,380.2369044999359,,381.23620089993346,,,,,,,,,,,,,,,,,009,002,2025-05-02_20h14.36.651,Cued GoNogo Task,2024.2.4,59.98123783766401,2025-05-02 20h23.10.315235 +0200,
block/CondBlock1.xlsx,You are about to start a block of type 1 trials.,90,90,0,Go,Go,0.25,0.2,0.05,space,blue,vertical,space,0.9597582999849692,None,space,1,0.3051141999894753,None,,,,0,0,0,0,0,90,90,90,381.2525620999513,,,,,,,,,,,,,,,,381.2366286999313,381.2525620999513,381.9355281998869,381.9520541999955,382.4348076999886,382.4190509999171,382.4196410999866,382.4348076999886,382.68462129996624,382.88446119998116,382.88446119998116,383.20203689998016,space,1,0.3051141999894753,None,383.2055421998957,383.7172876999248,384.71636409999337,384.7009700998897,,,,,,,,,,,,,,,,,009,002,2025-05-02_20h14.36.651,Cued GoNogo Task,2024.2.4,59.98123783766401,2025-05-02 20h23.10.315235 +0200,
block/CondBlock1.xlsx,You are about to start a block of type 1 trials.,91,91,0,Go,Go,0.26,0.05,0.2,space,green,horizontal,space,0.9597582999849692,None,space,1,0.2734233000082895,None,,,,0,0,0,0,0,91,91,91,384.71636409999337,,,,,,,,,,,,,,,,384.7013021999737,384.71636409999337,385.4156347999815,385.4156347999815,385.9153439999791,385.89931259991135,385.8997902999399,385.9153439999791,386.1818806999363,386.36502929998096,386.36502929998096,386.64943389990367,space,1,0.2734233000082895,None,386.6531698999461,387.16431849997025,388.16355759999715,388.1474882999901,,,,,,,,,,,,,,,,,009,002,2025-05-02_20h14.36.651,Cued GoNogo Task,2024.2.4,59.98123783766401,2025-05-02 20h23.10.315235 +0200,
block/CondBlock1.xlsx,You are about to start a block of type 1 trials.,92,92,0,NoGo,NoGo,0.44,0.2,0.05,none,blue,vertical,space,0.9597582999849692,None,None,1,,,,,,0,0,0,0,0,92,92,92,388.16355759999715,,,,,,,,,,,,,,,,388.1477466999786,388.16355759999715,388.86297809996177,388.86297809996177,389.36265339993406,389.3465284999693,389.34719169989694,389.36265339993406,389.81218059989624,389.9954846999608,389.9954846999608,390.4792720999103,None,1,,,390.4826595999766,390.9945669999579,391.99367169989273,391.97788989997935,390.4949161999393,390.4949161999393,,,,,,,,,,,,,,,009,002,2025-05-02_20h14.36.651,Cued GoNogo Task,2024.2.4,59.98123783766401,2025-05-02 20h23.10.315235 +0200,
block/CondBlock1.xlsx,You are about to start a block of type 1 trials.,93,93,0,Go,Go,0.13,0.2,0.05,space,green,vertical,space,0.9597582999849692,None,space,1,0.20960750000085682,None,,,,0,0,0,0,0,93,93,93,391.99367169989273,,,,,,,,,,,,,,,,391.97826659993734,391.99367169989273,392.69321229995694,392.69321229995694,393.1926886999281,393.17694359994493,393.1777363999281,393.1926886999281,393.3260960999178,393.50931869994383,393.50931869994383,393.72694480000064,space,1,0.20960750000085682,None,393.73120489995927,394.2420370999025,395.24108849989716,395.2254199999152,,,,,,,,,,,,,,,,,009,002,2025-05-02_20h14.36.651,Cued GoNogo Task,2024.2.4,59.98123783766401,2025-05-02 20h23.10.315235 +0200,
block/CondBlock1.xlsx,You are about to start a block of type 1 trials.,94,94,0,Go,Go,0.44,0.05,0.2,space,blue,horizontal,space,0.9597582999849692,None,space,1,0.41364569996949285,None,,,,0,0,0,0,0,94,94,94,395.24108849989716,,,,,,,,,,,,,,,,395.2257745999377,395.24108849989716,395.94063839991577,395.94063839991577,396.4399849999463,396.42419749998953,396.4250137999188,396.4399849999463,396.88970589998644,397.0730088999262,397.0730088999262,397.4906242999714,space,1,0.41364569996949285,None,397.49480749992654,398.00536889990326,399.0046448999783,398.98874159995466,,,,,,,,,,,,,,,,,009,002,2025-05-02_20h14.36.651,Cued GoNogo Task,2024.2.4,59.98123783766401,2025-05-02 20h23.10.315235 +0200,
block/CondBlock1.xlsx,You are about to start a block of type 1 trials.,95,95,0,Go,Go,0.15,0.2,0.05,space,green,vertical,space,0.9597582999849692,None,space,1,0.23732039995957166,None,,,,0,0,0,0,0,95,95,95,399.0046448999783,,,,,,,,,,,,,,,,398.98897419997957,399.0046448999783,399.70417109993286,399.70417109993286,400.203661599895,400.1877724999795,400.1884843999287,400.203661599895,400.35375379992183,400.5532514998922,400.5532514998922,400.8040396999568,space,1,0.23732039995957166,None,400.807369499933,401.3193631999893,402.31914969999343,402.30269459995907,,,,,,,,,,,,,,,,,009,002,2025-05-02_20h14.36.651,Cued GoNogo Task,2024.2.4,59.98123783766401,2025-05-02 20h23.10.315235 +0200,
block/CondBlock1.xlsx,You are about to start a block of type 1 trials.,96,96,0,Go,Go,0.49,0.2,0.05,space,green,vertical,space,0.9597582999849692,None,space,1,0.32644769991748035,None,,,,0,0,0,0,0,96,96,96,402.31914969999343,,,,,,,,,,,,,,,,402.3029920998961,402.31914969999343,403.0180885998998,403.034680099925,403.51769519993104,403.5019608999137,403.5027061998844,403.51769519993104,404.01704319997225,404.2002546999138,404.2002546999138,404.53459979989566,space,1,0.32644769991748035,None,404.53887969988864,405.0495387999108,406.0488622999983,406.0329063999234,,,,,,,,,,,,,,,,,009,002,2025-05-02_20h14.36.651,Cued GoNogo Task,2024.2.4,59.98123783766401,2025-05-02 20h23.10.315235 +0200,
block/CondBlock1.xlsx,You are about to start a block of type 1 trials.,97,97,0,Go,Go,0.11,0.2,0.05,space,blue,vertical,space,0.9597582999849692,None,space,1,0.16971859999466687,None,,,,0,0,0,0,0,97,97,97,406.0488622999983,,,,,,,,,,,,,,,,406.0332097999053,406.0488622999983,406.7483454999747,406.7483454999747,407.2477979999967,407.23203749989625,407.2328300999943,407.2477979999967,407.36437989992555,407.5476311999373,407.5476311999373,407.7321861999808,space,1,0.16971859999466687,None,407.73614509997424,408.24702469992917,409.24627049989067,409.23033149994444,,,,,,,,,,,,,,,,,009,002,2025-05-02_20h14.36.651,Cued GoNogo Task,2024.2.4,59.98123783766401,2025-05-02 20h23.10.315235 +0200,
block/CondBlock1.xlsx,You are about to start a block of type 1 trials.,98,98,0,Go,Go,0.26,0.05,0.2,space,green,horizontal,space,0.9597582999849692,None,space,1,0.3032498999964446,None,,,,0,0,0,0,0,98,98,98,409.24627049989067,,,,,,,,,,,,,,,,409.23058039997704,409.24627049989067,409.94580439990386,409.94580439990386,410.4452114999294,410.42905939999036,410.429633099935,410.4452114999294,410.7115459999768,410.8948687999509,410.8948687999509,411.21218679996673,space,1,0.3032498999964446,None,411.2155531999888,411.72737649991177,412.7267231999431,412.71105689997785,,,,,,,,,,,,,,,,,009,002,2025-05-02_20h14.36.651,Cued GoNogo Task,2024.2.4,59.98123783766401,2025-05-02 20h23.10.315235 +0200,
block/CondBlock1.xlsx,You are about to start a block of type 1 trials.,99,99,0,Go,Go,0.28,0.05,0.2,space,green,horizontal,space,0.9597582999849692,None,space,1,0.32704999996349216,None,,,,0,0,0,0,0,99,99,99,412.7267231999431,,,,,,,,,,,,,,,,412.7113606999628,412.7267231999431,413.4262577999616,413.4262577999616,413.9258986999048,413.9100467999233,413.9110841999063,413.9258986999048,414.20904659992084,414.3919340999564,414.3919340999564,414.7264558998868,space,1,0.32704999996349216,None,414.73180719988886,415.2412079999922,416.25391209998634,416.2247722999891,,,,,,,,,,,,,,,,,009,002,2025-05-02_20h14.36.651,Cued GoNogo Task,2024.2.4,59.98123783766401,2025-05-02 20h23.10.315235 +0200,
block/CondBlock1.xlsx,You are about to start a block of type 1 trials.,0,0,0,,,,,,,,,space,0.9597582999849692,None,,,,,space,0.7038592000026256,None,0,0,0,0,,,,,,,,,,,,,,,,,,,,,,,,,,,,,,,,,,,,,,,,,,,416.25052659993526,416.25391209998634,416.25391209998634,416.97412619995885,space,0.7038592000026256,None,,,,,,,,009,002,2025-05-02_20h14.36.651,Cued GoNogo Task,2024.2.4,59.98123783766401,2025-05-02 20h23.10.315235 +0200,
block/CondBlock2.xlsx,You are about to start a block of type 2 trials.,0,0,0,Go,Go,0.18,0.05,0.2,space,green,horizontal,space,268.7133098000195,None,space,1,0.3373460000148043,None,,,,0,1,1,1,0,0,0,0,685.7734512999887,,,,,,,,,416.9782568999799,416.98991699994076,416.98991699994076,685.7203806999605,space,268.7133098000195,None,685.7713942999253,685.7734512999887,686.4349401999498,686.484946899931,686.9346225999761,686.9186196998926,686.9193996998947,686.9346225999761,687.1177604999393,687.3009681999683,687.3009681999683,687.6525864999276,space,1,0.3373460000148043,None,687.6581632999005,688.1669119999278,689.1660854999209,689.1506901999237,,,,,,,,,,,,,,,,,009,002,2025-05-02_20h14.36.651,Cued GoNogo Task,2024.2.4,59.98123783766401,2025-05-02 20h23.10.315235 +0200,
block/CondBlock2.xlsx,You are about to start a block of type 2 trials.,1,1,0,Go,Go,0.2,0.2,0.05,space,green,vertical,space,268.7133098000195,None,space,1,0.26613269990775734,None,,,,0,1,1,1,0,1,1,1,689.1660854999209,,,,,,,,,,,,,,,,689.1510827998864,689.1660854999209,689.8653660999844,689.8653660999844,690.3651483999565,690.3491838999325,690.3498562999303,690.3651483999565,690.5646419998957,690.7646578999702,690.7646578999702,691.0336696999148,space,1,0.26613269990775734,None,691.037555799936,691.547437399975,692.5464631998911,692.5307068999391,,,,,,,,,,,,,,,,,009,002,2025-05-02_20h14.36.651,Cued GoNogo Task,2024.2.4,59.98123783766401,2025-05-02 20h23.10.315235 +0200,
block/CondBlock2.xlsx,You are about to start a block of type 2 trials.,2,2,0,Go,Go,0.22,0.05,0.2,space,blue,horizontal,space,268.7133098000195,None,space,1,0.3806014000438154,None,,,,0,1,1,1,0,2,2,2,692.5464631998911,,,,,,,,,,,,,,,,692.5310233999044,692.5464631998911,693.2460074999835,693.2460074999835,693.7456228999654,693.7298916999716,693.7307367998874,693.7456228999654,693.9787039998919,694.1619152999483,694.1619152999483,694.5461740999017,space,1,0.3806014000438154,None,694.5503645999124,695.0610532999272,696.0601819999283,696.044435299933,,,,,,,,,,,,,,,,,009,002,2025-05-02_20h14.36.651,Cued GoNogo Task,2024.2.4,59.98123783766401,2025-05-02 20h23.10.315235 +0200,
block/CondBlock2.xlsx,You are about to start a block of type 2 trials.,3,3,0,Go,Go,0.14,0.05,0.2,space,green,horizontal,space,268.7133098000195,None,space,1,0.29449960007332265,None,,,,0,1,1,1,0,3,3,3,696.0601819999283,,,,,,,,,,,,,,,,696.0447578999447,696.0601819999283,696.7597813999746,696.7597813999746,697.2593400999904,697.2436009999365,697.2444016999798,697.2593400999904,697.4093370999908,697.5924204998882,697.5924204998882,697.8932325999485,space,1,0.29449960007332265,None,697.8973420999246,698.4084893999388,699.4075525999069,699.391653199913,,,,,,,,,,,,,,,,,009,002,2025-05-02_20h14.36.651,Cued GoNogo Task,2024.2.4,59.98123783766401,2025-05-02 20h23.10.315235 +0200,
block/CondBlock2.xlsx,You are about to start a block of type 2 trials.,4,4,0,Go,Go,0.26,0.05,0.2,space,blue,horizontal,space,268.7133098000195,None,space,1,0.31764789996668696,None,,,,0,1,1,1,0,4,4,4,699.4075525999069,,,,,,,,,,,,,,,,699.3919145999243,699.4075525999069,700.1070577999344,700.1070577999344,700.6064888999099,700.5904445999768,700.5908575999783,700.6064888999099,700.8730948999291,701.056222199928,701.056222199928,701.3902181999292,space,1,0.31764789996668696,None,701.3952443999005,701.9055272999685,702.9046023999108,702.8887484999141,,,,,,,,,,,,,,,,,009,002,2025-05-02_20h14.36.651,Cued GoNogo Task,2024.2.4,59.98123783766401,2025-05-02 20h23.10.315235 +0200,
block/CondBlock2.xlsx,You are about to start a block of type 2 trials.,5,5,0,Go,Go,0.1,0.05,0.2,space,blue,horizontal,space,268.7133098000195,None,space,1,0.2187504000030458,None,,,,0,1,1,1,0,5,5,5,702.9046023999108,,,,,,,,,,,,,,,,702.8890488999896,702.9046023999108,703.6042075000005,703.6042075000005,704.1036319999257,704.087874699966,704.0885901999427,704.1036319999257,704.203647099901,704.4034238999011,704.4034238999011,704.6374174999073,space,1,0.2187504000030458,None,704.6409736999776,705.153012399911,,706.1523474999703,,,,,,,,,,,,,,,,,009,002,2025-05-02_20h14.36.651,Cued GoNogo Task,2024.2.4,59.98123783766401,2025-05-02 20h23.10.315235 +0200,
block/CondBlock2.xlsx,You are about to start a block of type 2 trials.,6,6,0,NoGo,NoGo,0.3,0.2,0.05,none,green,vertical,space,268.7133098000195,None,None,1,,,,,,0,1,1,1,0,6,6,6,706.168796199956,,,,,,,,,,,,,,,,706.152600399917,706.168796199956,706.851488599903,706.8681026999839,707.3510679999599,707.3353928999277,707.3362131998874,707.3510679999599,707.6508507999824,707.8506690999493,707.8506690999493,708.3341574999504,None,1,,,708.3381319999462,708.8332440999802,709.8322616999503,709.8165127999382,708.3500788999954,708.3500788999954,,,,,,,,,,,,,,,009,002,2025-05-02_20h14.36.651,Cued GoNogo Task,2024.2.4,59.98123783766401,2025-05-02 20h23.10.315235 +0200,
block/CondBlock2.xlsx,You are about to start a block of type 2 trials.,7,7,0,NoGo,NoGo,0.14,0.05,0.2,none,blue,horizontal,space,268.7133098000195,None,None,1,,,,,,0,1,1,1,0,7,7,7,709.8322616999503,,,,,,,,,,,,,,,,709.8168047999498,709.8491264999611,710.548441199935,710.548441199935,711.0478566999082,711.0318714999594,711.0322730999906,711.0478566999082,711.1979314999189,711.3810440999223,711.3810440999223,711.8648493998917,None,1,,,711.8653342999751,712.380285799969,713.3794440999627,713.3635613999795,711.8806579998927,711.8806579998927,,,,,,,,,,,,,,,009,002,2025-05-02_20h14.36.651,Cued GoNogo Task,2024.2.4,59.98123783766401,2025-05-02 20h23.10.315235 +0200,
block/CondBlock2.xlsx,You are about to start a block of type 2 trials.,8,8,0,Go,Go,0.13,0.2,0.05,space,blue,vertical,space,268.7133098000195,None,space,1,0.25498710002284497,None,,,,0,1,1,1,0,8,8,8,713.3794440999627,,,,,,,,,,,,,,,,713.3638641999569,713.3794440999627,714.0787630999694,714.0787630999694,714.5784863999579,714.5622088999953,714.5627014999045,714.5784863999579,714.7115600999678,714.8946942999028,714.8946942999028,715.1627014999976,space,1,0.25498710002284497,None,715.1672915999079,715.6773891999619,716.676575499936,716.6608063998865,,,,,,,,,,,,,,,,,009,002,2025-05-02_20h14.36.651,Cued GoNogo Task,2024.2.4,59.98123783766401,2025-05-02 20h23.10.315235 +0200,
block/CondBlock2.xlsx,You are about to start a block of type 2 trials.,9,9,0,Go,Go,0.43,0.2,0.05,space,green,vertical,space,268.7133098000195,None,space,1,0.2834514999995008,None,,,,0,1,1,1,0,9,9,9,716.676575499936,,,,,,,,,,,,,,,,716.6610591999488,716.676575499936,717.3762526999926,717.3762526999926,717.8758626999334,717.8597841999726,717.8603892999236,717.8758626999334,718.3085570998956,718.4918317999691,718.4918317999691,718.7776966999518,space,1,0.2834514999995008,None,718.7814979999093,719.291298899916,720.2903203999158,720.2744177998975,,,,,,,,,,,,,,,,,009,002,2025-05-02_20h14.36.651,Cued GoNogo Task,2024.2.4,59.98123783766401,2025-05-02 20h23.10.315235 +0200,
block/CondBlock2.xlsx,You are about to start a block of type 2 trials.,10,10,0,Go,Go,0.14,0.2,0.05,space,green,vertical,space,268.7133098000195,None,space,1,0.27118939999490976,None,,,,0,1,1,1,0,10,10,10,720.2903203999158,,,,,,,,,,,,,,,,720.2746914998861,720.2903203999158,720.9899513999699,720.9899513999699,721.4894535999047,721.4736385999713,721.474458899931,721.4894535999047,721.6391660999507,721.8224459999474,721.8224459999474,722.106250999961,space,1,0.27118939999490976,None,722.1088683999842,722.621721799951,723.6209208999062,723.6051974999718,,,,,,,,,,,,,,,,,009,002,2025-05-02_20h14.36.651,Cued GoNogo Task,2024.2.4,59.98123783766401,2025-05-02 20h23.10.315235 +0200,
block/CondBlock2.xlsx,You are about to start a block of type 2 trials.,11,11,0,Go,Go,0.27,0.2,0.05,space,green,vertical,space,268.7133098000195,None,space,1,0.2792518000351265,None,,,,0,1,1,1,0,11,11,11,723.6209208999062,,,,,,,,,,,,,,,,723.6055109999143,723.6209208999062,724.3204285999527,724.3204285999527,724.820051799994,724.8044261999894,724.8053875999758,724.820051799994,725.1029261999065,725.2863293999108,725.2863293999108,725.570845899987,space,1,0.2792518000351265,None,725.5750943999738,726.0857315999456,727.0848142999457,727.0687890999252,,,,,,,,,,,,,,,,,009,002,2025-05-02_20h14.36.651,Cued GoNogo Task,2024.2.4,59.98123783766401,2025-05-02 20h23.10.315235 +0200,
block/CondBlock2.xlsx,You are about to start a block of type 2 trials.,12,12,0,Go,Go,0.3,0.05,0.2,space,green,horizontal,space,268.7133098000195,None,space,1,0.31033110001590103,None,,,,0,1,1,1,0,12,12,12,727.0848142999457,,,,,,,,,,,,,,,,727.0691198999994,727.0848142999457,727.7840731999604,727.7840731999604,728.2837994999718,728.2680853999918,728.2687612998998,728.2837994999718,728.583483699942,728.7834012999665,728.7834012999665,729.1006640999112,space,1,0.31033110001590103,None,729.1033546999097,729.6159067999106,730.6150795998983,730.599227599916,,,,,,,,,,,,,,,,,009,002,2025-05-02_20h14.36.651,Cued GoNogo Task,2024.2.4,59.98123783766401,2025-05-02 20h23.10.315235 +0200,
block/CondBlock2.xlsx,You are about to start a block of type 2 trials.,13,13,0,Go,Go,0.18,0.2,0.05,space,blue,vertical,space,268.7133098000195,None,space,1,0.2665405999869108,None,,,,0,1,1,1,0,13,13,13,730.6150795998983,,,,,,,,,,,,,,,,730.5994525999995,730.6150795998983,731.3145757999737,731.3145757999737,731.8144064999651,731.7983326999238,731.7989654999692,731.8144064999651,731.99741489999,732.1806499999948,732.1806499999948,732.4498453999404,space,1,0.2665405999869108,None,732.454522499931,732.9634249999654,733.9624699999113,733.946467999951,,,,,,,,,,,,,,,,,009,002,2025-05-02_20h14.36.651,Cued GoNogo Task,2024.2.4,59.98123783766401,2025-05-02 20h23.10.315235 +0200,
block/CondBlock2.xlsx,You are about to start a block of type 2 trials.,14,14,0,Go,Go,0.13,0.2,0.05,space,green,vertical,space,268.7133098000195,None,space,1,0.27171520004048944,None,,,,0,1,1,1,0,14,14,14,733.9624699999113,,,,,,,,,,,,,,,,733.946697599953,733.9624699999113,734.6619527000003,734.6619527000003,735.1612765999744,735.1454257000005,735.1459749999922,735.1612765999744,735.2948082999792,735.4945519999601,735.4945519999601,735.7791954999557,space,1,0.27171520004048944,None,735.7837009999203,736.2940049999161,737.2931604998885,737.277369499905,,,,,,,,,,,,,,,,,009,002,2025-05-02_20h14.36.651,Cued GoNogo Task,2024.2.4,59.98123783766401,2025-05-02 20h23.10.315235 +0200,
block/CondBlock2.xlsx,You are about to start a block of type 2 trials.,15,15,0,Go,Go,0.18,0.2,0.05,space,blue,vertical,space,268.7133098000195,None,space,1,0.2913387999869883,None,,,,0,1,1,1,0,15,15,15,737.2931604998885,,,,,,,,,,,,,,,,737.2777123999549,737.2931604998885,737.9924817999126,737.9924817999126,738.492189399898,738.4763212999096,738.477353699971,738.492189399898,738.6754190999782,738.858522699913,738.858522699913,739.1594684999436,space,1,0.2913387999869883,None,739.1635114999954,739.6745446999557,740.6735685999738,740.6578060999746,,,,,,,,,,,,,,,,,009,002,2025-05-02_20h14.36.651,Cued GoNogo Task,2024.2.4,59.98123783766401,2025-05-02 20h23.10.315235 +0200,
block/CondBlock2.xlsx,You are about to start a block of type 2 trials.,16,16,0,Go,Go,0.24,0.2,0.05,space,green,vertical,space,268.7133098000195,None,space,1,0.23652409994974732,None,,,,0,1,1,1,0,16,16,16,740.6735685999738,,,,,,,,,,,,,,,,740.658189299982,740.6735685999738,741.3731238999171,741.3731238999171,741.8726929998957,741.8569291998865,741.8575119999005,741.8726929998957,742.1225699998904,742.3057119000005,742.3057119000005,742.5565407999093,space,1,0.23652409994974732,None,742.5601291999919,743.0716293998994,744.0713888999308,744.0548051999649,,,,,,,,,,,,,,,,,009,002,2025-05-02_20h14.36.651,Cued GoNogo Task,2024.2.4,59.98123783766401,2025-05-02 20h23.10.315235 +0200,
block/CondBlock2.xlsx,You are about to start a block of type 2 trials.,17,17,0,Go,Go,0.26,0.2,0.05,space,blue,vertical,space,268.7133098000195,None,space,1,0.27877150010317564,None,,,,0,1,1,1,0,17,17,17,744.0713888999308,,,,,,,,,,,,,,,,744.0550378999906,744.0713888999308,744.7702934999252,744.7869731999235,745.2698397999629,745.2540879999287,745.2547948999563,745.2698397999629,745.536344199907,745.7194719999097,745.7194719999097,746.003687899909,space,1,0.27877150010317564,None,746.0073482999578,746.5188112999313,747.5179944999982,747.5022597999778,,,,,,,,,,,,,,,,,009,002,2025-05-02_20h14.36.651,Cued GoNogo Task,2024.2.4,59.98123783766401,2025-05-02 20h23.10.315235 +0200,
block/CondBlock2.xlsx,You are about to start a block of type 2 trials.,18,18,0,Go,Go,0.1,0.05,0.2,space,blue,horizontal,space,268.7133098000195,None,space,1,0.2623024000786245,None,,,,0,1,1,1,0,18,18,18,747.5179944999982,,,,,,,,,,,,,,,,747.5026800999185,747.5179944999982,748.2176706999307,748.2176706999307,748.7170383998891,748.700848099892,748.701437599957,748.7170383998891,748.8169673999073,749.0166833999101,749.0166833999101,749.2845357999904,space,1,0.2623024000786245,None,749.2889141999185,749.799598799902,750.7985184999416,750.7829708999489,,,,,,,,,,,,,,,,,009,002,2025-05-02_20h14.36.651,Cued GoNogo Task,2024.2.4,59.98123783766401,2025-05-02 20h23.10.315235 +0200,
block/CondBlock2.xlsx,You are about to start a block of type 2 trials.,19,19,0,Go,Go,0.46,0.2,0.05,space,blue,vertical,space,268.7133098000195,None,None,0,,,,,,0,1,1,1,0,19,19,19,750.7985184999416,,,,,,,,,,,,,,,,750.7832022999646,750.7985184999416,751.4978942999151,751.4978942999151,751.9976143999957,751.9817593999906,751.9823682999704,751.9976143999957,752.463949099998,752.6471827999922,752.6471827999922,753.131081599975,None,0,,,753.1347291999264,753.6464642999927,754.6454662999604,754.6294115999481,753.1466742999619,753.1466742999619,,,,,,,,,,,,,,,009,002,2025-05-02_20h14.36.651,Cued GoNogo Task,2024.2.4,59.98123783766401,2025-05-02 20h23.10.315235 +0200,
block/CondBlock2.xlsx,You are about to start a block of type 2 trials.,20,20,0,Go,Go,0.3,0.05,0.2,space,blue,horizontal,space,268.7133098000195,None,space,1,0.30197729996871203,None,,,,0,1,1,1,0,20,20,20,754.6454662999604,,,,,,,,,,,,,,,,754.6296802998986,754.6454662999604,755.3447920999024,755.3447920999024,755.8446153999539,755.82851199992,755.8291755999671,755.8446153999539,756.1441820999607,756.3442383999936,756.3442383999936,756.6615636999486,space,1,0.30197729996871203,None,756.6658551999135,757.1767312999582,758.1760002999799,758.1597939999774,,,,,,,,,,,,,,,,,009,002,2025-05-02_20h14.36.651,Cued GoNogo Task,2024.2.4,59.98123783766401,2025-05-02 20h23.10.315235 +0200,
block/CondBlock2.xlsx,You are about to start a block of type 2 trials.,21,21,0,Go,Go,0.23,0.05,0.2,space,green,horizontal,space,268.7133098000195,None,space,1,0.2228984999237582,None,,,,0,1,1,1,0,21,21,21,758.1760002999799,,,,,,,,,,,,,,,,758.1600292999065,758.1760002999799,758.8753184999805,758.8753184999805,759.3748840999324,759.3592970999889,759.3600366999162,759.3748840999324,759.6079637999646,759.7913555999985,759.7913555999985,760.0253888999578,space,1,0.2228984999237582,None,760.0289714999963,760.540561899892,761.5397871999303,761.5241139999125,,,,,,,,,,,,,,,,,009,002,2025-05-02_20h14.36.651,Cued GoNogo Task,2024.2.4,59.98123783766401,2025-05-02 20h23.10.315235 +0200,
block/CondBlock2.xlsx,You are about to start a block of type 2 trials.,22,22,0,Go,Go,0.19,0.2,0.05,space,green,vertical,space,268.7133098000195,None,space,1,0.3244616000447422,None,,,,0,1,1,1,0,22,22,22,761.5397871999303,,,,,,,,,,,,,,,,761.5245298999362,761.5397871999303,762.2392476999667,762.2392476999667,762.7386849999893,762.7230874999659,762.723714999971,762.7386849999893,762.9390560999746,763.1217075999593,763.1217075999593,763.4557140999241,space,1,0.3244616000447422,None,763.4582648999058,763.971015799907,764.9703404998872,764.9543471999932,,,,,,,,,,,,,,,,,009,002,2025-05-02_20h14.36.651,Cued GoNogo Task,2024.2.4,59.98123783766401,2025-05-02 20h23.10.315235 +0200,
block/CondBlock2.xlsx,You are about to start a block of type 2 trials.,23,23,0,NoGo,NoGo,0.41,0.2,0.05,none,blue,vertical,space,268.7133098000195,None,None,1,,,,,,0,1,1,1,0,23,23,23,764.9703404998872,,,,,,,,,,,,,,,,764.9546192999696,764.9703404998872,765.6697819998953,765.6697819998953,766.1695022999775,766.1537778999191,766.154394299956,766.1695022999775,766.5857720999047,766.7689166999189,766.7689166999189,767.2523648999631,None,1,,,767.2545257998863,767.7681783998851,,768.7674327999121,767.2684841998853,767.2684841998853,,,,,,,,,,,,,,,009,002,2025-05-02_20h14.36.651,Cued GoNogo Task,2024.2.4,59.98123783766401,2025-05-02 20h23.10.315235 +0200,
block/CondBlock2.xlsx,You are about to start a block of type 2 trials.,24,24,0,Go,Go,0.17,0.2,0.05,space,blue,vertical,space,268.7133098000195,None,space,1,0.27356440003495663,None,,,,0,1,1,1,0,24,24,24,768.7837265999988,,,,,,,,,,,,,,,,768.7677135999547,768.7837265999988,769.4667607999872,769.4832736999961,769.9662221999606,769.9503834999632,769.9511740999296,769.9662221999606,770.1494471998885,770.3326039999956,770.3326039999956,770.6165213999338,space,1,0.27356440003495663,None,770.6200182999019,771.1319835999748,772.1310148999328,772.1152452999959,,,,,,,,,,,,,,,,,009,002,2025-05-02_20h14.36.651,Cued GoNogo Task,2024.2.4,59.98123783766401,2025-05-02 20h23.10.315235 +0200,
block/CondBlock2.xlsx,You are about to start a block of type 2 trials.,25,25,0,Go,Go,0.27,0.05,0.2,space,blue,horizontal,space,268.7133098000195,None,space,1,0.22534769994672388,None,,,,0,1,1,1,0,25,25,25,772.1310148999328,,,,,,,,,,,,,,,,772.1155186999822,772.1310148999328,772.8303925999207,772.8303925999207,773.3301198999397,773.3145107999444,773.3154266999336,773.3301198999397,773.6131411999231,773.7963672999758,773.7963672999758,774.0306056999834,space,1,0.22534769994672388,None,774.0351801998913,774.5458450999577,775.5448437999003,775.5295889999252,,,,,,,,,,,,,,,,,009,002,2025-05-02_20h14.36.651,Cued GoNogo Task,2024.2.4,59.98123783766401,2025-05-02 20h23.10.315235 +0200,
block/CondBlock2.xlsx,You are about to start a block of type 2 trials.,26,26,0,Go,Go,0.26,0.05,0.2,space,green,horizontal,space,268.7133098000195,None,space,1,0.260332899983041,None,,,,0,1,1,1,0,26,26,26,775.5448437999003,,,,,,,,,,,,,,,,775.530006099958,775.5448437999003,776.2443582999986,776.2443582999986,776.7438587999204,776.7281097999075,776.7290641999571,776.7438587999204,777.010242999997,777.1936461998848,777.1936461998848,777.4610916998936,space,1,0.260332899983041,None,777.464469499886,777.9763500998961,778.9753853000002,778.9594082999974,,,,,,,,,,,,,,,,,009,002,2025-05-02_20h14.36.651,Cued GoNogo Task,2024.2.4,59.98123783766401,2025-05-02 20h23.10.315235 +0200,
block/CondBlock2.xlsx,You are about to start a block of type 2 trials.,27,27,0,Go,Go,0.22,0.2,0.05,space,green,vertical,space,268.7133098000195,None,space,1,0.27984339999966323,None,,,,0,1,1,1,0,27,27,27,778.9753853000002,,,,,,,,,,,,,,,,778.9596503999783,778.9753853000002,779.6749667999102,779.6749667999102,780.1743869999191,780.1587341999402,780.1594881999772,780.1743869999191,780.4075891999528,780.5907081998885,780.5907081998885,780.8754720999859,space,1,0.27984339999966323,None,780.8801173999673,781.3901476999745,782.3891801999416,782.3735341998981,,,,,,,,,,,,,,,,,009,002,2025-05-02_20h14.36.651,Cued GoNogo Task,2024.2.4,59.98123783766401,2025-05-02 20h23.10.315235 +0200,
block/CondBlock2.xlsx,You are about to start a block of type 2 trials.,28,28,0,Go,Go,0.19,0.05,0.2,space,blue,horizontal,space,268.7133098000195,None,space,1,0.2503386000171304,None,,,,0,1,1,1,0,28,28,28,782.3891801999416,,,,,,,,,,,,,,,,782.3740229998948,782.3891801999416,783.0887416999321,783.0887416999321,783.5883792999666,783.5724255999085,783.5731143999146,783.5883792999666,783.7881304998882,783.9715816999087,783.9715816999087,784.2392837998923,space,1,0.2503386000171304,None,784.2439262999687,784.7540829998907,785.7532760999165,785.7374299999792,,,,,,,,,,,,,,,,,009,002,2025-05-02_20h14.36.651,Cued GoNogo Task,2024.2.4,59.98123783766401,2025-05-02 20h23.10.315235 +0200,
block/CondBlock2.xlsx,You are about to start a block of type 2 trials.,29,29,0,Go,Go,0.18,0.05,0.2,space,blue,horizontal,space,268.7133098000195,None,space,1,0.23245869996026158,None,,,,0,1,1,1,0,29,29,29,785.7532760999165,,,,,,,,,,,,,,,,785.7377770999447,785.7532760999165,786.4525348999305,786.4525348999305,786.9522178999614,786.9363151999423,786.9369646999985,786.9522178999614,787.1354589998955,787.3187923999503,787.3187923999503,787.5534760999726,space,1,0.23245869996026158,None,787.556251199916,788.0680979999015,789.0671394999372,789.0512228999287,,,,,,,,,,,,,,,,,009,002,2025-05-02_20h14.36.651,Cued GoNogo Task,2024.2.4,59.98123783766401,2025-05-02 20h23.10.315235 +0200,
block/CondBlock2.xlsx,You are about to start a block of type 2 trials.,30,30,0,NoGo,NoGo,0.23,0.2,0.05,none,blue,vertical,space,268.7133098000195,None,None,1,,,,,,0,1,1,1,0,30,30,30,789.0671394999372,,,,,,,,,,,,,,,,789.0515679999953,789.0671394999372,789.7665061999578,789.7665061999578,790.2662605999503,790.2500928998925,790.2507269999478,790.2662605999503,790.4994187999982,790.6826741999248,790.6826741999248,791.1661648999434,None,1,,,791.1692074999446,791.6817092999117,792.6809740999015,792.6650667999638,791.1819814998889,791.1819814998889,,,,,,,,,,,,,,,009,002,2025-05-02_20h14.36.651,Cued GoNogo Task,2024.2.4,59.98123783766401,2025-05-02 20h23.10.315235 +0200,
block/CondBlock2.xlsx,You are about to start a block of type 2 trials.,31,31,0,Go,Go,0.43,0.2,0.05,space,green,vertical,space,268.7133098000195,None,space,1,0.30235319992061704,None,,,,0,1,1,1,0,31,31,31,792.6809740999015,,,,,,,,,,,,,,,,792.665399499936,792.6809740999015,793.3802746998845,793.3802746998845,793.8799194999738,793.8636493999511,793.8641461998923,793.8799194999738,794.3129711999791,794.4960851999931,794.4960851999931,794.8131843999727,space,1,0.30235319992061704,None,794.8157228999771,795.3287484999746,796.3277036999352,796.3117800999898,,,,,,,,,,,,,,,,,009,002,2025-05-02_20h14.36.651,Cued GoNogo Task,2024.2.4,59.98123783766401,2025-05-02 20h23.10.315235 +0200,
block/CondBlock2.xlsx,You are about to start a block of type 2 trials.,32,32,0,Go,Go,0.13,0.05,0.2,space,blue,horizontal,space,268.7133098000195,None,space,1,0.22669169993605465,None,,,,0,1,1,1,0,32,32,32,796.3277036999352,,,,,,,,,,,,,,,,796.3120163999265,796.3277036999352,797.0272616998991,797.0272616998991,797.5268322998891,797.5111921998905,797.5120283999713,797.5268322998891,797.6600321999285,797.84320569993,797.84320569993,798.07780739991,space,1,0.22669169993605465,None,798.0819227999309,798.5926628999878,799.5919086999493,799.5761480999645,,,,,,,,,,,,,,,,,009,002,2025-05-02_20h14.36.651,Cued GoNogo Task,2024.2.4,59.98123783766401,2025-05-02 20h23.10.315235 +0200,
block/CondBlock2.xlsx,You are about to start a block of type 2 trials.,33,33,0,Go,Go,0.45,0.05,0.2,space,green,horizontal,space,268.7133098000195,None,space,1,0.22252920002210885,None,,,,0,1,1,1,0,33,33,33,799.5919086999493,,,,,,,,,,,,,,,,799.5764898998896,799.5919086999493,800.2913308999268,800.2913308999268,800.7907366999425,800.7751773999771,800.7759707999649,800.7907366999425,801.2404117999831,801.4404010999715,801.4404010999715,801.6749199999031,space,1,0.22252920002210885,None,801.6787653999636,802.1895275999559,803.1887231998844,803.1728935999563,,,,,,,,,,,,,,,,,009,002,2025-05-02_20h14.36.651,Cued GoNogo Task,2024.2.4,59.98123783766401,2025-05-02 20h23.10.315235 +0200,
block/CondBlock2.xlsx,You are about to start a block of type 2 trials.,34,34,0,Go,Go,0.14,0.2,0.05,space,blue,vertical,space,268.7133098000195,None,space,1,0.22992079996038228,None,,,,0,1,1,1,0,34,34,34,803.1887231998844,,,,,,,,,,,,,,,,803.1731959999306,803.1887231998844,803.8882335999515,803.8882335999515,804.3878899998963,804.3719387999736,804.3724739999743,804.3878899998963,804.537669399986,804.7209563999204,804.7209563999204,804.9556620999938,space,1,0.22992079996038228,None,804.9599403999746,805.4704836999299,806.4695379999466,806.4538201999385,,,,,,,,,,,,,,,,,009,002,2025-05-02_20h14.36.651,Cued GoNogo Task,2024.2.4,59.98123783766401,2025-05-02 20h23.10.315235 +0200,
block/CondBlock2.xlsx,You are about to start a block of type 2 trials.,35,35,0,Go,Go,0.11,0.2,0.05,space,blue,vertical,space,268.7133098000195,None,space,1,0.17352880001999438,None,,,,0,1,1,1,0,35,35,35,806.4695379999466,,,,,,,,,,,,,,,,806.4540758999065,806.4695379999466,807.1688129999675,807.1688129999675,807.6684457999654,807.6524731999962,807.6531008998863,807.6684457999654,807.7851162999868,807.9682828999357,807.9682828999357,808.1529436999699,space,1,0.17352880001999438,None,808.1583116999827,808.6677721999586,809.666865499923,809.6510545999045,,,,,,,,,,,,,,,,,009,002,2025-05-02_20h14.36.651,Cued GoNogo Task,2024.2.4,59.98123783766401,2025-05-02 20h23.10.315235 +0200,
block/CondBlock2.xlsx,You are about to start a block of type 2 trials.,36,36,0,Go,Go,0.15,0.05,0.2,space,green,horizontal,space,268.7133098000195,None,space,1,0.3904649999458343,None,,,,0,1,1,1,0,36,36,36,809.666865499923,,,,,,,,,,,,,,,,809.6514025999932,809.666865499923,810.3661987999221,810.3661987999221,810.8659168999875,810.8499052999541,810.8504286999814,810.8659168999875,811.0158168999478,811.2154711999465,811.2154711999465,811.6164848998887,space,1,0.3904649999458343,None,811.6200397999492,812.1315936999163,813.1306339999428,813.1148186998907,,,,,,,,,,,,,,,,,009,002,2025-05-02_20h14.36.651,Cued GoNogo Task,2024.2.4,59.98123783766401,2025-05-02 20h23.10.315235 +0200,
block/CondBlock2.xlsx,You are about to start a block of type 2 trials.,37,37,0,Go,Go,0.15,0.2,0.05,space,green,vertical,space,268.7133098000195,None,space,1,0.3271093999501318,None,,,,0,1,1,1,0,37,37,37,813.1306339999428,,,,,,,,,,,,,,,,813.1150827999227,813.1306339999428,813.830310099991,813.830310099991,814.3296120999148,814.313903799979,814.314634499955,814.3296120999148,814.4795336999232,814.6793741999427,814.6793741999427,815.0134974999819,space,1,0.3271093999501318,None,815.0168023998849,815.5286056998884,816.5278107998893,816.5120997999329,,,,,,,,,,,,,,,,,009,002,2025-05-02_20h14.36.651,Cued GoNogo Task,2024.2.4,59.98123783766401,2025-05-02 20h23.10.315235 +0200,
block/CondBlock2.xlsx,You are about to start a block of type 2 trials.,38,38,0,NoGo,NoGo,0.14,0.2,0.05,none,green,vertical,space,268.7133098000195,None,None,1,,,,,,0,1,1,1,0,38,38,38,816.5278107998893,,,,,,,,,,,,,,,,816.5124044999247,816.5278107998893,817.2273691999726,817.2273691999726,817.7269717999734,817.7114260999952,817.7122379998909,817.7269717999734,817.8769229999743,818.0599809999112,818.0599809999112,818.5437159999274,None,1,,,818.5468004998984,819.0591663999949,820.0582619999768,820.0423723999411,818.5595598999644,818.5595598999644,,,,,,,,,,,,,,,009,002,2025-05-02_20h14.36.651,Cued GoNogo Task,2024.2.4,59.98123783766401,2025-05-02 20h23.10.315235 +0200,
block/CondBlock2.xlsx,You are about to start a block of type 2 trials.,39,39,0,Go,Go,0.46,0.2,0.05,space,green,vertical,space,268.7133098000195,None,space,1,0.26726979995146394,None,,,,0,1,1,1,0,39,39,39,820.0582619999768,,,,,,,,,,,,,,,,820.0426672999747,820.0582619999768,820.7577060998883,820.7577060998883,821.2573539000005,821.2417555999709,821.2426890999777,821.2573539000005,821.7236209999537,821.9067712998949,821.9067712998949,822.1908952998929,space,1,0.26726979995146394,None,822.194008499966,822.7062254999764,823.7053299999097,823.6894316999242,,,,,,,,,,,,,,,,,009,002,2025-05-02_20h14.36.651,Cued GoNogo Task,2024.2.4,59.98123783766401,2025-05-02 20h23.10.315235 +0200,
block/CondBlock2.xlsx,You are about to start a block of type 2 trials.,40,40,0,Go,Go,0.5,0.05,0.2,space,blue,horizontal,space,268.7133098000195,None,space,1,0.2988638000097126,None,,,,0,1,1,1,0,40,40,40,823.7053299999097,,,,,,,,,,,,,,,,823.689740599948,823.7053299999097,824.4048845999641,824.4048845999641,824.9042842999334,824.8887583999895,824.889354199986,824.9042842999334,825.4039822999621,825.6037795998855,825.6037795998855,825.9058140999405,space,1,0.2988638000097126,None,825.9105361999245,826.4199406999396,827.4188115999568,827.4032334999647,,,,,,,,,,,,,,,,,009,002,2025-05-02_20h14.36.651,Cued GoNogo Task,2024.2.4,59.98123783766401,2025-05-02 20h23.10.315235 +0200,
block/CondBlock2.xlsx,You are about to start a block of type 2 trials.,41,41,0,Go,Go,0.16,0.05,0.2,space,green,horizontal,space,268.7133098000195,None,space,1,0.3916302000870928,None,,,,0,1,1,1,0,41,41,41,827.4188115999568,,,,,,,,,,,,,,,,827.4035945999203,827.4188115999568,828.1184911999153,828.1184911999153,828.6180261999834,828.6018234998919,828.602453099913,828.6180261999834,828.784559099935,828.9675422,828.9675422,829.3686167999404,space,1,0.3916302000870928,None,829.3726784999017,829.883538599941,830.8827019999735,830.8666844998952,,,,,,,,,,,,,,,,,009,002,2025-05-02_20h14.36.651,Cued GoNogo Task,2024.2.4,59.98123783766401,2025-05-02 20h23.10.315235 +0200,
