Block,blockMsg,thisN,thisTrialN,thisRepN,CueType,StimType,CueTime,Stim_Height,Stim_Width,CRESP,Color,Orientation,key_resp_2.keys,key_resp_2.rt,key_resp_2.duration,Key_Resp.keys,Key_Resp.corr,Key_Resp.rt,Key_Resp.duration,key_resp_3.keys,key_resp_3.rt,key_resp_3.duration,Blocks.thisRepN,Blocks.thisTrialN,Blocks.thisN,Blocks.thisIndex,Trials.thisRepN,Trials.thisTrialN,Trials.thisN,Trials.thisIndex,thisRow.t,notes,TaskIntro.started,fixation.started,key_resp.started,TaskIntro.stopped,key_resp.keys,key_resp.rt,key_resp.duration,BlockStart.started,BlockStart_Msg.started,key_resp_2.started,BlockStart.stopped,Blocks.key_resp_2.keys,Blocks.key_resp_2.rt,Blocks.key_resp_2.duration,Fixation.started,FixationPhase.started,Blank.started,FixationPhase.stopped,Blank.stopped,Fixation.stopped,Trial.started,Cue.started,Cue.stopped,GoNogo_Stim.started,Key_Resp.started,Trial.stopped,Trials.Key_Resp.keys,Trials.Key_Resp.corr,Trials.Key_Resp.rt,Trials.Key_Resp.duration,Feedback.started,Feedback_Present.started,Feedback_Present.stopped,Feedback.stopped,GoNogo_Stim.stopped,Key_Resp.stopped,BlockEnd.started,BlockEnd_Msg.started,key_resp_3.started,BlockEnd.stopped,Blocks.key_resp_3.keys,Blocks.key_resp_3.rt,Blocks.key_resp_3.duration,TaskEnd.started,ThankYou.started,key_resp_4.started,TaskEnd.stopped,key_resp_4.keys,key_resp_4.rt,key_resp_4.duration,participant,session,date,expName,psychopyVersion,frameRate,expStart,
,,,,,,,,,,,,,,,,,,,,,,,,,,,,,,,,,0.05943560000741854,0.10539199999766424,0.10539199999766424,29.240627799998038,space,29.078065800014883,None,,,,,,,,,,,,,,,,,,,,,,,,,,,,,,,,,,,,,,,,,,,,005,001,2025-04-27_22h52.11.370,Cued GoNogo Task,2024.2.4,60.00204007092619,2025-04-27 22h52.19.147494 +0200,
block/CondBlock1.xlsx,You are about to start a block of type 1 trials.,0,0,0,Go,Go,0.13,0.05,0.2,space,blue,horizontal,space,1.6350518999970518,None,space,1,0.2948247999884188,None,,,,0,0,0,0,0,0,0,0,30.974268599995412,,,,,,,,,29.249652999977116,29.252456999965943,29.252456999965943,30.90259589999914,space,1.6350518999970518,None,30.97177100001136,30.974268599995412,31.617340700002387,31.68414159998065,32.11699339997722,32.101191199966706,32.10180850001052,32.11699339997722,32.250313099997584,32.433472999953665,32.433472999953665,32.734375300002284,space,1,0.2948247999884188,None,32.746405599988066,33.24942700000247,34.248637499986216,34.23278439999558,,,,,,,,,,,,,,,,,005,001,2025-04-27_22h52.11.370,Cued GoNogo Task,2024.2.4,60.00204007092619,2025-04-27 22h52.19.147494 +0200,
block/CondBlock1.xlsx,You are about to start a block of type 1 trials.,1,1,0,NoGo,NoGo,0.43,0.05,0.2,none,blue,horizontal,space,1.6350518999970518,None,None,1,,,,,,0,0,0,0,0,1,1,1,34.248637499986216,,,,,,,,,,,,,,,,34.233145500009414,34.248637499986216,34.947940699988976,34.947940699988976,35.447681899997406,35.43161929998314,35.432372199953534,35.447681899997406,35.880673500010744,36.063849599973764,36.063849599973764,36.54771799995797,None,1,,,36.55086319998372,37.06298250000691,38.06219099997543,38.04619580000872,36.563352399971336,36.563352399971336,,,,,,,,,,,,,,,005,001,2025-04-27_22h52.11.370,Cued GoNogo Task,2024.2.4,60.00204007092619,2025-04-27 22h52.19.147494 +0200,
block/CondBlock1.xlsx,You are about to start a block of type 1 trials.,2,2,0,Go,Go,0.12,0.2,0.05,space,blue,vertical,space,1.6350518999970518,None,space,1,0.3579064999939874,None,,,,0,0,0,0,0,2,2,2,38.06219099997543,,,,,,,,,,,,,,,,38.04648259998066,38.06219099997543,38.761406200006604,38.761406200006604,39.261009399953764,39.2451855999534,39.24576329998672,39.261009399953764,39.394410000008065,39.577596299990546,39.577596299990546,39.94535519997589,space,1,0.3579064999939874,None,39.951765200006776,40.460128400009125,41.45947709999746,41.44353339995723,,,,,,,,,,,,,,,,,005,001,2025-04-27_22h52.11.370,Cued GoNogo Task,2024.2.4,60.00204007092619,2025-04-27 22h52.19.147494 +0200,
block/CondBlock1.xlsx,You are about to start a block of type 1 trials.,3,3,0,NoGo,NoGo,0.18,0.2,0.05,none,green,vertical,space,1.6350518999970518,None,None,1,,,,,,0,0,0,0,0,3,3,3,41.45947709999746,,,,,,,,,,,,,,,,41.44381450000219,41.45947709999746,42.158606399956625,42.158606399956625,42.65834409999661,42.64228089997778,42.642848299990874,42.65834409999661,42.84156929998426,43.02467449998949,43.02467449998949,43.50840150000295,None,1,,,43.51073959999485,44.024025699996855,45.023057199956384,45.00720779999392,43.524128999968525,43.524128999968525,,,,,,,,,,,,,,,005,001,2025-04-27_22h52.11.370,Cued GoNogo Task,2024.2.4,60.00204007092619,2025-04-27 22h52.19.147494 +0200,
block/CondBlock1.xlsx,You are about to start a block of type 1 trials.,4,4,0,Go,Go,0.24,0.05,0.2,space,green,horizontal,space,1.6350518999970518,None,space,1,0.25665950000984594,None,,,,0,0,0,0,0,4,4,4,45.023057199956384,,,,,,,,,,,,,,,,45.007560199999716,45.023057199956384,45.72253839997575,45.72253839997575,46.22220749995904,46.20625629997812,46.20693389995722,46.22220749995904,46.47189579997212,46.65502750000451,46.65502750000451,46.92278309998801,space,1,0.25665950000984594,None,46.92853599996306,47.437813199998345,48.43687919998774,48.42099680000683,,,,,,,,,,,,,,,,,005,001,2025-04-27_22h52.11.370,Cued GoNogo Task,2024.2.4,60.00204007092619,2025-04-27 22h52.19.147494 +0200,
block/CondBlock1.xlsx,You are about to start a block of type 1 trials.,5,5,0,Go,Go,0.21,0.05,0.2,space,blue,horizontal,space,1.6350518999970518,None,space,1,0.35631780000403523,None,,,,0,0,0,0,0,5,5,5,48.43687919998774,,,,,,,,,,,,,,,,48.42129969998496,48.43687919998774,49.13657679996686,49.13657679996686,49.6359550000052,49.61996809998527,49.62044889997924,49.6359550000052,49.85235020000255,50.03553180000745,50.03553180000745,50.403381199983414,space,1,0.35631780000403523,None,50.407649700006004,50.91828280000482,51.917427200009115,51.90199909999501,,,,,,,,,,,,,,,,,005,001,2025-04-27_22h52.11.370,Cued GoNogo Task,2024.2.4,60.00204007092619,2025-04-27 22h52.19.147494 +0200,
block/CondBlock1.xlsx,You are about to start a block of type 1 trials.,6,6,0,Go,Go,0.11,0.2,0.05,space,blue,vertical,space,1.6350518999970518,None,space,1,0.3757628999883309,None,,,,0,0,0,0,0,6,6,6,51.917427200009115,,,,,,,,,,,,,,,,51.90249829995446,51.917427200009115,52.616832299972884,52.616832299972884,53.116491099994164,53.10034419997828,53.10072669998044,53.116491099994164,53.232945499999914,53.41607479995582,53.41607479995582,53.800738999969326,space,1,0.3757628999883309,None,53.804730299976654,54.31549740000628,55.3147270999616,55.29883029998746,,,,,,,,,,,,,,,,,005,001,2025-04-27_22h52.11.370,Cued GoNogo Task,2024.2.4,60.00204007092619,2025-04-27 22h52.19.147494 +0200,
block/CondBlock1.xlsx,You are about to start a block of type 1 trials.,7,7,0,Go,Go,0.15,0.2,0.05,space,blue,vertical,space,1.6350518999970518,None,space,1,0.26431349996710196,None,,,,0,0,0,0,0,7,7,7,55.3147270999616,,,,,,,,,,,,,,,,55.29923109995434,55.3147270999616,56.01405880000675,56.01405880000675,56.51352420001058,56.49766799999634,56.498105000006035,56.51352420001058,56.663434499991126,56.863451699959114,56.863451699959114,57.131288299977314,space,1,0.26431349996710196,None,57.13506189995678,57.646179599978495,58.64534940000158,58.629355199984275,,,,,,,,,,,,,,,,,005,001,2025-04-27_22h52.11.370,Cued GoNogo Task,2024.2.4,60.00204007092619,2025-04-27 22h52.19.147494 +0200,
block/CondBlock1.xlsx,You are about to start a block of type 1 trials.,8,8,0,NoGo,NoGo,0.3,0.05,0.2,none,blue,horizontal,space,1.6350518999970518,None,None,1,,,,,,0,0,0,0,0,8,8,8,58.64534940000158,,,,,,,,,,,,,,,,58.62969400000293,58.64534940000158,59.344693499966525,59.344693499966525,59.84418489999371,59.82831609999994,59.8289950999897,59.84418489999371,60.14407849998679,60.34384039998986,60.34384039998986,60.8275161999627,None,1,,,60.830111299990676,61.343021799984854,62.34212290000869,62.32607549999375,60.84327889996348,60.84327889996348,,,,,,,,,,,,,,,005,001,2025-04-27_22h52.11.370,Cued GoNogo Task,2024.2.4,60.00204007092619,2025-04-27 22h52.19.147494 +0200,
block/CondBlock1.xlsx,You are about to start a block of type 1 trials.,9,9,0,NoGo,NoGo,0.17,0.05,0.2,none,blue,horizontal,space,1.6350518999970518,None,None,1,,,,,,0,0,0,0,0,9,9,9,62.34212290000869,,,,,,,,,,,,,,,,62.3263208999997,62.34212290000869,63.04156439995859,63.04156439995859,63.541223099979106,63.52521069999784,63.5258376999991,63.541223099979106,63.7243821999873,63.907406399957836,63.907406399957836,64.39142359996913,None,1,,,64.39193310000701,64.90662759996485,65.9059503999888,65.88987059995998,64.40732539998135,64.40732539998135,,,,,,,,,,,,,,,005,001,2025-04-27_22h52.11.370,Cued GoNogo Task,2024.2.4,60.00204007092619,2025-04-27 22h52.19.147494 +0200,
block/CondBlock1.xlsx,You are about to start a block of type 1 trials.,10,10,0,NoGo,NoGo,0.26,0.2,0.05,none,green,vertical,space,1.6350518999970518,None,None,1,,,,,,0,0,0,0,0,10,10,10,65.9059503999888,,,,,,,,,,,,,,,,65.8901191999903,65.9059503999888,66.60551799996756,66.60551799996756,67.10489389998838,67.08913209999446,67.08987649995834,67.10489389998838,67.37141580000753,67.55459169996902,67.55459169996902,68.03805689996807,None,1,,,68.0384337999858,68.53725080000004,69.53633209998952,69.52044549997663,68.05437999998685,68.05437999998685,,,,,,,,,,,,,,,005,001,2025-04-27_22h52.11.370,Cued GoNogo Task,2024.2.4,60.00204007092619,2025-04-27 22h52.19.147494 +0200,
block/CondBlock1.xlsx,You are about to start a block of type 1 trials.,11,11,0,Go,Go,0.27,0.05,0.2,space,green,horizontal,space,1.6350518999970518,None,space,1,0.31868470000335947,None,,,,0,0,0,0,0,11,11,11,69.53633209998952,,,,,,,,,,,,,,,,69.52084179996746,69.55305290000979,70.25245239998912,70.25245239998912,70.751903700002,70.73638670000946,70.73708110000007,70.751903700002,71.0349207999534,71.2182635999634,71.2182635999634,71.55263669998385,space,1,0.31868470000335947,None,71.5589142999961,72.06747859995812,73.06666959996801,73.05060019996017,,,,,,,,,,,,,,,,,005,001,2025-04-27_22h52.11.370,Cued GoNogo Task,2024.2.4,60.00204007092619,2025-04-27 22h52.19.147494 +0200,
block/CondBlock1.xlsx,You are about to start a block of type 1 trials.,12,12,0,Go,Go,0.16,0.2,0.05,space,green,vertical,space,1.6350518999970518,None,space,1,0.34376409999094903,None,,,,0,0,0,0,0,12,12,12,73.06666959996801,,,,,,,,,,,,,,,,73.05082639999455,73.06666959996801,73.76598069997272,73.76598069997272,74.26580359996296,74.24953809997533,74.25010869995458,74.26580359996296,74.43223320000106,74.61544349999167,74.61544349999167,74.96632710000267,space,1,0.34376409999094903,None,74.9703567000106,75.48133400001097,76.4803861999535,76.46482039999682,,,,,,,,,,,,,,,,,005,001,2025-04-27_22h52.11.370,Cued GoNogo Task,2024.2.4,60.00204007092619,2025-04-27 22h52.19.147494 +0200,
block/CondBlock1.xlsx,You are about to start a block of type 1 trials.,13,13,0,Go,Go,0.13,0.2,0.05,space,green,vertical,space,1.6350518999970518,None,space,1,0.23547499999403954,None,,,,0,0,0,0,0,13,13,13,76.4803861999535,,,,,,,,,,,,,,,,76.46513189998223,76.4803861999535,77.17995489999885,77.17995489999885,77.67966129997512,77.66392439999618,77.66470239998307,77.67966129997512,77.8128096999717,77.99588449997827,77.99588449997827,78.246779899986,space,1,0.23547499999403954,None,78.25024459999986,78.76191979995929,79.76114989997586,79.74527159996796,,,,,,,,,,,,,,,,,005,001,2025-04-27_22h52.11.370,Cued GoNogo Task,2024.2.4,60.00204007092619,2025-04-27 22h52.19.147494 +0200,
block/CondBlock1.xlsx,You are about to start a block of type 1 trials.,14,14,0,Go,Go,0.12,0.05,0.2,space,blue,horizontal,space,1.6350518999970518,None,space,1,0.3721133000217378,None,,,,0,0,0,0,0,14,14,14,79.76114989997586,,,,,,,,,,,,,,,,79.74559669999871,79.76114989997586,80.46079059998738,80.46079059998738,80.96009750000667,80.94424230000004,80.9448468000046,80.96009750000667,81.09356259997003,81.27671189996181,81.27671189996181,81.66067519999342,space,1,0.3721133000217378,None,81.66402009996818,82.17586600000504,83.1751077999943,83.15912849997403,,,,,,,,,,,,,,,,,005,001,2025-04-27_22h52.11.370,Cued GoNogo Task,2024.2.4,60.00204007092619,2025-04-27 22h52.19.147494 +0200,
block/CondBlock1.xlsx,You are about to start a block of type 1 trials.,15,15,0,Go,Go,0.45,0.2,0.05,space,blue,vertical,space,1.6350518999970518,None,space,1,0.3518020000192337,None,,,,0,0,0,0,0,15,15,15,83.1751077999943,,,,,,,,,,,,,,,,83.15944169997238,83.1751077999943,83.87470250000479,83.87470250000479,84.3740734999883,84.35819569998421,84.35882490000222,84.3740734999883,84.82365699997172,85.02362150000408,85.02362150000408,85.3907677999814,space,1,0.3518020000192337,None,85.39344620000338,85.90603660000488,86.90509729995392,86.88897009997163,,,,,,,,,,,,,,,,,005,001,2025-04-27_22h52.11.370,Cued GoNogo Task,2024.2.4,60.00204007092619,2025-04-27 22h52.19.147494 +0200,
block/CondBlock1.xlsx,You are about to start a block of type 1 trials.,16,16,0,NoGo,NoGo,0.14,0.2,0.05,none,green,vertical,space,1.6350518999970518,None,space,0,0.2514526000013575,None,,,,0,0,0,0,0,16,16,16,86.90509729995392,,,,,,,,,,,,,,,,86.88914399995701,86.90509729995392,87.60462199995527,87.60462199995527,88.10418500000378,88.08845819998533,88.08882090001134,88.10418500000378,88.2540117999888,88.43722239998169,88.43722239998169,88.70486289996188,space,0,0.2514526000013575,None,88.71336140000494,89.2202381999814,90.21935699996538,90.20333729998674,,,,,,,,,,,,,,,,,005,001,2025-04-27_22h52.11.370,Cued GoNogo Task,2024.2.4,60.00204007092619,2025-04-27 22h52.19.147494 +0200,
block/CondBlock1.xlsx,You are about to start a block of type 1 trials.,17,17,0,Go,Go,0.12,0.05,0.2,space,green,horizontal,space,1.6350518999970518,None,space,1,0.3213176000281237,None,,,,0,0,0,0,0,17,17,17,90.21935699996538,,,,,,,,,,,,,,,,90.20357979997061,90.21935699996538,90.9185118000023,90.9185118000023,91.41826669999864,91.40234619996045,91.40309219999472,91.41826669999864,91.55164399999194,91.7346433000057,91.7346433000057,92.06885799998417,space,1,0.3213176000281237,None,92.0737017999636,92.58412119996501,93.5830539999879,93.56716939999023,,,,,,,,,,,,,,,,,005,001,2025-04-27_22h52.11.370,Cued GoNogo Task,2024.2.4,60.00204007092619,2025-04-27 22h52.19.147494 +0200,
block/CondBlock1.xlsx,You are about to start a block of type 1 trials.,18,18,0,Go,Go,0.47,0.2,0.05,space,blue,vertical,space,1.6350518999970518,None,space,1,0.2790586999617517,None,,,,0,0,0,0,0,18,18,18,93.5830539999879,,,,,,,,,,,,,,,,93.56747359997826,93.5830539999879,94.2826214999659,94.2826214999659,94.78210909996415,94.7665519999573,94.76706260000356,94.78210909996415,95.26517239998793,95.44838580000214,95.44838580000214,95.7325123999617,space,1,0.2790586999617517,None,95.73576770001091,96.24767939996673,,97.24668809998548,,,,,,,,,,,,,,,,,005,001,2025-04-27_22h52.11.370,Cued GoNogo Task,2024.2.4,60.00204007092619,2025-04-27 22h52.19.147494 +0200,
block/CondBlock1.xlsx,You are about to start a block of type 1 trials.,19,19,0,Go,Go,0.18,0.2,0.05,space,green,vertical,space,1.6350518999970518,None,space,1,0.22730239998782054,None,,,,0,0,0,0,0,19,19,19,97.26314979995368,,,,,,,,,,,,,,,,97.24698639998678,97.26314979995368,97.94616160000442,97.96281769999769,98.44598819996463,98.42988760001026,98.43056449998403,98.44598819996463,98.62917099997867,98.8122202999657,98.8122202999657,99.04630290000932,space,1,0.22730239998782054,None,99.04971900000237,99.56170530000236,100.56060979998438,100.54468579997774,,,,,,,,,,,,,,,,,005,001,2025-04-27_22h52.11.370,Cued GoNogo Task,2024.2.4,60.00204007092619,2025-04-27 22h52.19.147494 +0200,
block/CondBlock1.xlsx,You are about to start a block of type 1 trials.,20,20,0,Go,Go,0.19,0.2,0.05,space,blue,vertical,space,1.6350518999970518,None,space,1,0.35319840000011027,None,,,,0,0,0,0,0,20,20,20,100.56060979998438,,,,,,,,,,,,,,,,100.54493729997193,100.56060979998438,101.2601827000035,101.2601827000035,101.7598227999988,101.74365349998698,101.74425709998468,101.7598227999988,101.95967730000848,102.14291719999164,102.14291719999164,102.5103669000091,space,1,0.35319840000011027,None,102.51479980000295,103.02531719999388,104.02465019997908,104.00861109996913,,,,,,,,,,,,,,,,,005,001,2025-04-27_22h52.11.370,Cued GoNogo Task,2024.2.4,60.00204007092619,2025-04-27 22h52.19.147494 +0200,
block/CondBlock1.xlsx,You are about to start a block of type 1 trials.,21,21,0,Go,Go,0.14,0.2,0.05,space,blue,vertical,space,1.6350518999970518,None,space,1,0.2912703999900259,None,,,,0,0,0,0,0,21,21,21,104.02465019997908,,,,,,,,,,,,,,,,104.00891169998795,104.02465019997908,104.72415779996663,104.72415779996663,105.22350659995573,105.20754849998048,105.20818349998444,105.22350659995573,105.37346769997384,105.55668939999305,105.55668939999305,105.85765510000056,space,1,0.2912703999900259,None,105.86229789996287,106.37261630001012,107.37185860000318,107.35616759996628,,,,,,,,,,,,,,,,,005,001,2025-04-27_22h52.11.370,Cued GoNogo Task,2024.2.4,60.00204007092619,2025-04-27 22h52.19.147494 +0200,
block/CondBlock1.xlsx,You are about to start a block of type 1 trials.,22,22,0,Go,Go,0.15,0.2,0.05,space,blue,vertical,space,1.6350518999970518,None,space,1,0.27057789999525994,None,,,,0,0,0,0,0,22,22,22,107.37185860000318,,,,,,,,,,,,,,,,107.35659139999188,107.37185860000318,108.07114189997083,108.07114189997083,108.57078349997755,108.5549200999667,108.55563419999089,108.57078349997755,108.72075169999152,108.92060139996465,108.92060139996465,109.20480339997448,space,1,0.27057789999525994,None,109.21024119999493,109.71981919999234,110.71906549995765,110.70334289997118,,,,,,,,,,,,,,,,,005,001,2025-04-27_22h52.11.370,Cued GoNogo Task,2024.2.4,60.00204007092619,2025-04-27 22h52.19.147494 +0200,
block/CondBlock1.xlsx,You are about to start a block of type 1 trials.,23,23,0,Go,Go,0.23,0.05,0.2,space,green,horizontal,space,1.6350518999970518,None,space,1,0.33743400004459545,None,,,,0,0,0,0,0,23,23,23,110.71906549995765,,,,,,,,,,,,,,,,110.70365689997561,110.71906549995765,111.41861230001086,111.41861230001086,111.91796349996002,111.90219180000713,111.90290379995713,111.91796349996002,112.15108079998754,112.33429450000403,112.33429450000403,112.68562439997913,space,1,0.33743400004459545,None,112.68994309997652,113.20030109997606,114.19966499996372,114.18369849998271,,,,,,,,,,,,,,,,,005,001,2025-04-27_22h52.11.370,Cued GoNogo Task,2024.2.4,60.00204007092619,2025-04-27 22h52.19.147494 +0200,
block/CondBlock1.xlsx,You are about to start a block of type 1 trials.,24,24,0,Go,Go,0.2,0.2,0.05,space,blue,vertical,space,1.6350518999970518,None,space,1,0.2500269999727607,None,,,,0,0,0,0,0,24,24,24,114.19966499996372,,,,,,,,,,,,,,,,114.18398979998892,114.19966499996372,114.898876799969,114.898876799969,115.39847869996447,115.38226119999308,115.38274949998595,115.39847869996447,115.5984688999597,115.79818739998154,115.79818739998154,116.06560309999622,space,1,0.2500269999727607,None,116.06897580000805,116.58091979997698,117.57993489998626,117.56414360000053,,,,,,,,,,,,,,,,,005,001,2025-04-27_22h52.11.370,Cued GoNogo Task,2024.2.4,60.00204007092619,2025-04-27 22h52.19.147494 +0200,
block/CondBlock1.xlsx,You are about to start a block of type 1 trials.,25,25,0,Go,Go,0.15,0.2,0.05,space,blue,vertical,space,1.6350518999970518,None,space,1,0.19049700000323355,None,,,,0,0,0,0,0,25,25,25,117.57993489998626,,,,,,,,,,,,,,,,117.56441259995336,117.57993489998626,118.27948490000563,118.27948490000563,118.77912510000169,118.76344760000939,118.76430709997658,118.77912510000169,118.92902829998638,119.1289628999657,119.1289628999657,119.3299264999805,space,1,0.19049700000323355,None,119.33391769998707,119.84493949997704,120.84413119999226,120.82807749998756,,,,,,,,,,,,,,,,,005,001,2025-04-27_22h52.11.370,Cued GoNogo Task,2024.2.4,60.00204007092619,2025-04-27 22h52.19.147494 +0200,
block/CondBlock1.xlsx,You are about to start a block of type 1 trials.,26,26,0,NoGo,NoGo,0.2,0.2,0.05,none,blue,vertical,space,1.6350518999970518,None,space,0,0.21383940003579482,None,,,,0,0,0,0,0,26,26,26,120.84413119999226,,,,,,,,,,,,,,,,120.82832339999732,120.84413119999226,121.54348469997058,121.54348469997058,122.04308509995462,122.02710949996253,122.02782660000958,122.04308509995462,122.2427483999636,122.44275300001027,122.44275300001027,122.66021820000606,space,0,0.21383940003579482,None,122.66538109997055,123.17541899997741,124.17470549995778,124.15848729998106,,,,,,,,,,,,,,,,,005,001,2025-04-27_22h52.11.370,Cued GoNogo Task,2024.2.4,60.00204007092619,2025-04-27 22h52.19.147494 +0200,
block/CondBlock1.xlsx,You are about to start a block of type 1 trials.,27,27,0,Go,Go,0.29,0.05,0.2,space,green,horizontal,space,1.6350518999970518,None,space,1,0.2789265000028536,None,,,,0,0,0,0,0,27,27,27,124.17470549995778,,,,,,,,,,,,,,,,124.15872399997897,124.17470549995778,124.87426099996082,124.87426099996082,125.37355670001125,125.35745640000096,125.35804859997006,125.37355670001125,125.67349059996195,125.85668550000992,125.85668550000992,126.14076280000154,space,1,0.2789265000028536,None,126.14650859998073,126.65599609998753,127.65505199995823,127.63912959996378,,,,,,,,,,,,,,,,,005,001,2025-04-27_22h52.11.370,Cued GoNogo Task,2024.2.4,60.00204007092619,2025-04-27 22h52.19.147494 +0200,
block/CondBlock1.xlsx,You are about to start a block of type 1 trials.,28,28,0,Go,Go,0.24,0.2,0.05,space,blue,vertical,space,1.6350518999970518,None,space,1,0.2727978000184521,None,,,,0,0,0,0,0,28,28,28,127.65505199995823,,,,,,,,,,,,,,,,127.6394164999947,127.65505199995823,128.35460929997498,128.35460929997498,128.85407000000123,128.83795999997528,128.8384494999773,128.85407000000123,129.1039399000001,129.2871659999946,129.2871659999946,129.57156589999795,space,1,0.2727978000184521,None,129.57606910000322,130.08645770000294,131.08562819997314,131.06964969995897,,,,,,,,,,,,,,,,,005,001,2025-04-27_22h52.11.370,Cued GoNogo Task,2024.2.4,60.00204007092619,2025-04-27 22h52.19.147494 +0200,
block/CondBlock1.xlsx,You are about to start a block of type 1 trials.,29,29,0,Go,Go,0.15,0.05,0.2,space,green,horizontal,space,1.6350518999970518,None,space,1,0.2126443999586627,None,,,,0,0,0,0,0,29,29,29,131.08562819997314,,,,,,,,,,,,,,,,131.0699389000074,131.08562819997314,131.78498399996897,131.78498399996897,132.28456860000733,132.26867789996322,132.2692859999952,132.28456860000733,132.43460969999433,132.63454890000867,132.63454890000867,132.8524941999931,space,1,0.2126443999586627,None,132.85717899998417,133.36702569999034,134.36630090000108,134.35048419999657,,,,,,,,,,,,,,,,,005,001,2025-04-27_22h52.11.370,Cued GoNogo Task,2024.2.4,60.00204007092619,2025-04-27 22h52.19.147494 +0200,
block/CondBlock1.xlsx,You are about to start a block of type 1 trials.,30,30,0,Go,Go,0.23,0.2,0.05,space,green,vertical,space,1.6350518999970518,None,space,1,0.2409155999775976,None,,,,0,0,0,0,0,30,30,30,134.36630090000108,,,,,,,,,,,,,,,,134.35074869997334,134.36630090000108,135.06566399999429,135.06566399999429,135.56529080000473,135.54913689999375,135.5497861999902,135.56529080000473,135.79840789997252,135.99809489998734,135.99809489998734,136.24950639996678,space,1,0.2409155999775976,None,136.25368600001093,136.7643124999595,137.76337130001048,137.74740279995603,,,,,,,,,,,,,,,,,005,001,2025-04-27_22h52.11.370,Cued GoNogo Task,2024.2.4,60.00204007092619,2025-04-27 22h52.19.147494 +0200,
block/CondBlock1.xlsx,You are about to start a block of type 1 trials.,31,31,0,Go,Go,0.28,0.2,0.05,space,green,vertical,space,1.6350518999970518,None,space,1,0.25932880002073944,None,,,,0,0,0,0,0,31,31,31,137.76337130001048,,,,,,,,,,,,,,,,137.74768649996258,137.76337130001048,138.4629989999812,138.4629989999812,138.96242459997302,138.94686779996846,138.94767839997075,138.96242459997302,139.24556740000844,139.42882609996013,139.42882609996013,139.69704639998963,space,1,0.25932880002073944,None,139.70266219996847,140.21137179998914,141.21065570000792,141.19486399996094,,,,,,,,,,,,,,,,,005,001,2025-04-27_22h52.11.370,Cued GoNogo Task,2024.2.4,60.00204007092619,2025-04-27 22h52.19.147494 +0200,
block/CondBlock1.xlsx,You are about to start a block of type 1 trials.,32,32,0,Go,Go,0.19,0.2,0.05,space,green,vertical,space,1.6350518999970518,None,space,1,0.3108623999869451,None,,,,0,0,0,0,0,32,32,32,141.21065570000792,,,,,,,,,,,,,,,,141.19514669995988,141.21065570000792,141.90996129997075,141.90996129997075,142.4095422999817,142.39353689999552,142.39399949996732,142.4095422999817,142.60943959996803,142.79264090000652,142.79264090000652,143.11057099996833,space,1,0.3108623999869451,None,143.11470019997796,143.62544029997662,144.62434869998833,144.60869580000872,,,,,,,,,,,,,,,,,005,001,2025-04-27_22h52.11.370,Cued GoNogo Task,2024.2.4,60.00204007092619,2025-04-27 22h52.19.147494 +0200,
block/CondBlock1.xlsx,You are about to start a block of type 1 trials.,33,33,0,Go,Go,0.12,0.2,0.05,space,green,vertical,space,1.6350518999970518,None,space,1,0.3798545999452472,None,,,,0,0,0,0,0,33,33,33,144.62434869998833,,,,,,,,,,,,,,,,144.60903439996764,144.62434869998833,145.32387419999577,145.32387419999577,145.8235954999691,145.8074842999922,145.80810689995997,145.8235954999691,145.95674009999493,146.1400136000011,146.1400136000011,146.5240754999686,space,1,0.3798545999452472,None,146.52751109999372,147.039391600003,148.03831999999238,148.02243909996469,,,,,,,,,,,,,,,,,005,001,2025-04-27_22h52.11.370,Cued GoNogo Task,2024.2.4,60.00204007092619,2025-04-27 22h52.19.147494 +0200,
block/CondBlock1.xlsx,You are about to start a block of type 1 trials.,34,34,0,Go,Go,0.18,0.2,0.05,space,blue,vertical,space,1.6350518999970518,None,space,1,0.2362002999871038,None,,,,0,0,0,0,0,34,34,34,148.03831999999238,,,,,,,,,,,,,,,,148.02269239997258,148.03831999999238,148.73782049998408,148.73782049998408,149.23728860000847,149.2213765999768,149.22203850001097,149.23728860000847,149.42062960000476,149.6036922999774,149.6036922999774,149.85497839999152,space,1,0.2362002999871038,None,149.8592044999823,150.36970549996477,151.3689051999827,151.3530146999983,,,,,,,,,,,,,,,,,005,001,2025-04-27_22h52.11.370,Cued GoNogo Task,2024.2.4,60.00204007092619,2025-04-27 22h52.19.147494 +0200,
block/CondBlock1.xlsx,You are about to start a block of type 1 trials.,35,35,0,Go,Go,0.21,0.2,0.05,space,blue,vertical,space,1.6350518999970518,None,space,1,0.2175835000234656,None,,,,0,0,0,0,0,35,35,35,151.3689051999827,,,,,,,,,,,,,,,,151.35327049996704,151.3689051999827,152.0683906999766,152.0683906999766,152.56795269995928,152.55197209998732,152.5525754999835,152.56795269995928,152.78448289999506,152.96743739995873,152.96743739995873,153.20186169998487,space,1,0.2175835000234656,None,153.20611420000205,153.71696589997737,154.7161536999629,154.70061759999953,,,,,,,,,,,,,,,,,005,001,2025-04-27_22h52.11.370,Cued GoNogo Task,2024.2.4,60.00204007092619,2025-04-27 22h52.19.147494 +0200,
block/CondBlock1.xlsx,You are about to start a block of type 1 trials.,36,36,0,Go,Go,0.2,0.2,0.05,space,green,vertical,space,1.6350518999970518,None,space,1,0.2051060000085272,None,,,,0,0,0,0,0,36,36,36,154.7161536999629,,,,,,,,,,,,,,,,154.70098749996396,154.7161536999629,155.4154836999951,155.4154836999951,155.91520160000073,155.8991723000072,155.89983289997326,155.91520160000073,156.11479029996553,156.31485530000646,156.31485530000646,156.53261769999517,space,1,0.2051060000085272,None,156.53660739999032,157.04753829998663,158.0466022999608,158.03051179996692,,,,,,,,,,,,,,,,,005,001,2025-04-27_22h52.11.370,Cued GoNogo Task,2024.2.4,60.00204007092619,2025-04-27 22h52.19.147494 +0200,
block/CondBlock1.xlsx,You are about to start a block of type 1 trials.,37,37,0,Go,Go,0.45,0.05,0.2,space,blue,horizontal,space,1.6350518999970518,None,space,1,0.3841851000324823,None,,,,0,0,0,0,0,37,37,37,158.0466022999608,,,,,,,,,,,,,,,,158.03075959999114,158.0466022999608,158.74617169995327,158.74617169995327,159.24581269995542,159.23009219998494,159.2312035000068,159.24581269995542,159.6955064999638,159.89535169996088,159.89535169996088,160.2960842999746,space,1,0.3841851000324823,None,160.30076099996222,160.81131849996746,161.8103429999901,161.79437869996764,,,,,,,,,,,,,,,,,005,001,2025-04-27_22h52.11.370,Cued GoNogo Task,2024.2.4,60.00204007092619,2025-04-27 22h52.19.147494 +0200,
block/CondBlock1.xlsx,You are about to start a block of type 1 trials.,38,38,0,Go,Go,0.13,0.05,0.2,space,blue,horizontal,space,1.6350518999970518,None,space,1,0.273522800009232,None,,,,0,0,0,0,0,38,38,38,161.8103429999901,,,,,,,,,,,,,,,,161.7946082999697,161.8103429999901,162.50975619995734,162.50975619995734,163.00935869995737,162.9944003999699,162.99512139998842,163.00935869995737,163.1425462999614,163.3257283999701,163.3257283999701,163.61021499999333,space,1,0.273522800009232,None,163.61533020000206,164.1249492999632,165.12426579999737,165.10851569997612,,,,,,,,,,,,,,,,,005,001,2025-04-27_22h52.11.370,Cued GoNogo Task,2024.2.4,60.00204007092619,2025-04-27 22h52.19.147494 +0200,
block/CondBlock1.xlsx,You are about to start a block of type 1 trials.,39,39,0,Go,Go,0.46,0.2,0.05,space,blue,vertical,space,1.6350518999970518,None,space,1,0.3401395999826491,None,,,,0,0,0,0,0,39,39,39,165.12426579999737,,,,,,,,,,,,,,,,165.10883849998936,165.12426579999737,165.82364959997358,165.82364959997358,166.32329549995484,166.3076744999853,166.30841629998758,166.32329549995484,166.78955320001114,166.9726732999552,166.9726732999552,167.32399559998885,space,1,0.3401395999826491,None,167.3282101000077,167.83883099997183,168.83782109996537,168.8220325000002,,,,,,,,,,,,,,,,,005,001,2025-04-27_22h52.11.370,Cued GoNogo Task,2024.2.4,60.00204007092619,2025-04-27 22h52.19.147494 +0200,
block/CondBlock1.xlsx,You are about to start a block of type 1 trials.,40,40,0,Go,Go,0.29,0.2,0.05,space,blue,vertical,space,1.6350518999970518,None,space,1,0.2966237000073306,None,,,,0,0,0,0,0,40,40,40,168.83782109996537,,,,,,,,,,,,,,,,168.82237780001014,168.83782109996537,169.53738659998635,169.53738659998635,170.03683359996649,170.02100499998778,170.02163460000884,170.03683359996649,170.3367772999918,170.51985240000067,170.51985240000067,170.82084399997257,space,1,0.2966237000073306,None,170.82446599996183,171.3359375,172.33505569997942,172.3192074999679,,,,,,,,,,,,,,,,,005,001,2025-04-27_22h52.11.370,Cued GoNogo Task,2024.2.4,60.00204007092619,2025-04-27 22h52.19.147494 +0200,
block/CondBlock1.xlsx,You are about to start a block of type 1 trials.,41,41,0,Go,Go,0.22,0.2,0.05,space,blue,vertical,space,1.6350518999970518,None,space,1,0.2496384999831207,None,,,,0,0,0,0,0,41,41,41,172.33505569997942,,,,,,,,,,,,,,,,172.31952949997503,172.33505569997942,173.03430409997236,173.03430409997236,173.53402630001074,173.51798000000417,173.51855340000475,173.53402630001074,173.76729230000637,173.95035279996227,173.95035279996227,174.20307190000312,space,1,0.2496384999831207,None,174.20744659996126,174.7162780999788,175.71543549996568,175.69987740000943,,,,,,,,,,,,,,,,,005,001,2025-04-27_22h52.11.370,Cued GoNogo Task,2024.2.4,60.00204007092619,2025-04-27 22h52.19.147494 +0200,
block/CondBlock1.xlsx,You are about to start a block of type 1 trials.,42,42,0,Go,Go,0.49,0.2,0.05,space,blue,vertical,space,1.6350518999970518,None,space,1,0.38711979996878654,None,,,,0,0,0,0,0,42,42,42,175.71543549996568,,,,,,,,,,,,,,,,175.7002955999924,175.71543549996568,176.4147529999609,176.4147529999609,176.91455339995446,176.898847799981,176.89961019996554,176.91455339995446,177.4142355999793,177.59737929998664,177.59737929998664,177.99804390000645,space,1,0.38711979996878654,None,178.00201269995887,178.51317210000707,179.5123779999558,179.49646779999603,,,,,,,,,,,,,,,,,005,001,2025-04-27_22h52.11.370,Cued GoNogo Task,2024.2.4,60.00204007092619,2025-04-27 22h52.19.147494 +0200,
block/CondBlock1.xlsx,You are about to start a block of type 1 trials.,43,43,0,Go,Go,0.2,0.2,0.05,space,blue,vertical,space,1.6350518999970518,None,space,1,0.24942750000627711,None,,,,0,0,0,0,0,43,43,43,179.5123779999558,,,,,,,,,,,,,,,,179.49675180000486,179.5123779999558,180.21193829999538,180.21193829999538,180.71133949997602,180.69558249996044,180.69626729999436,180.71133949997602,180.91137349995552,181.11105959996348,181.11105959996348,181.36363430001074,space,1,0.24942750000627711,None,181.3700435999781,181.87740549998125,182.8762899999856,182.86068330000853,,,,,,,,,,,,,,,,,005,001,2025-04-27_22h52.11.370,Cued GoNogo Task,2024.2.4,60.00204007092619,2025-04-27 22h52.19.147494 +0200,
block/CondBlock1.xlsx,You are about to start a block of type 1 trials.,44,44,0,Go,Go,0.3,0.05,0.2,space,blue,horizontal,space,1.6350518999970518,None,space,1,0.36138379998737946,None,,,,0,0,0,0,0,44,44,44,182.8762899999856,,,,,,,,,,,,,,,,182.86099369998556,182.8762899999856,183.57571249996545,183.57571249996545,184.0753359000082,184.05938349995995,184.06003170000622,184.0753359000082,184.3750757999951,184.57494089996908,184.57494089996908,184.94266939995578,space,1,0.36138379998737946,None,184.94778529996984,185.45745819999138,186.4567015999928,186.4408492000075,,,,,,,,,,,,,,,,,005,001,2025-04-27_22h52.11.370,Cued GoNogo Task,2024.2.4,60.00204007092619,2025-04-27 22h52.19.147494 +0200,
block/CondBlock1.xlsx,You are about to start a block of type 1 trials.,45,45,0,NoGo,NoGo,0.21,0.05,0.2,none,green,horizontal,space,1.6350518999970518,None,space,0,0.2398216999717988,None,,,,0,0,0,0,0,45,45,45,186.4567015999928,,,,,,,,,,,,,,,,186.4410289999796,186.4567015999928,187.15605920000235,187.15605920000235,187.65567439998267,187.63957309996476,187.64006700000027,187.65567439998267,187.87212879996514,188.05528949998552,188.05528949998552,188.3060297999764,space,0,0.2398216999717988,None,188.31005460000597,188.82151179999346,189.8204979999573,189.80443229997763,,,,,,,,,,,,,,,,,005,001,2025-04-27_22h52.11.370,Cued GoNogo Task,2024.2.4,60.00204007092619,2025-04-27 22h52.19.147494 +0200,
block/CondBlock1.xlsx,You are about to start a block of type 1 trials.,46,46,0,NoGo,NoGo,0.45,0.05,0.2,none,blue,horizontal,space,1.6350518999970518,None,space,0,0.210349100001622,None,,,,0,0,0,0,0,46,46,46,189.8204979999573,,,,,,,,,,,,,,,,189.80467139999382,189.8204979999573,190.519965399988,190.519965399988,191.019598999992,191.00380800000858,191.00433189998148,191.019598999992,191.46915159997297,191.66910649999045,191.66910649999045,191.88648129999638,space,0,0.210349100001622,None,191.88676500000292,192.40179400000488,193.40099259995623,193.3848760999972,,,,,,,,,,,,,,,,,005,001,2025-04-27_22h52.11.370,Cued GoNogo Task,2024.2.4,60.00204007092619,2025-04-27 22h52.19.147494 +0200,
block/CondBlock1.xlsx,You are about to start a block of type 1 trials.,47,47,0,Go,Go,0.24,0.05,0.2,space,green,horizontal,space,1.6350518999970518,None,space,1,0.3029206999926828,None,,,,0,0,0,0,0,47,47,47,193.40099259995623,,,,,,,,,,,,,,,,193.3850716999732,193.40099259995623,194.1004426999716,194.1004426999716,194.60001150000608,194.58411209995393,194.58470010000747,194.60001150000608,194.84977349999826,195.03280169999925,195.03280169999925,195.35026449995348,space,1,0.3029206999926828,None,195.3543861999642,195.86551279999549,196.86472849996062,196.84882029995788,,,,,,,,,,,,,,,,,005,001,2025-04-27_22h52.11.370,Cued GoNogo Task,2024.2.4,60.00204007092619,2025-04-27 22h52.19.147494 +0200,
block/CondBlock1.xlsx,You are about to start a block of type 1 trials.,48,48,0,NoGo,NoGo,0.15,0.2,0.05,none,blue,vertical,space,1.6350518999970518,None,None,1,,,,,,0,0,0,0,0,48,48,48,196.86472849996062,,,,,,,,,,,,,,,,196.8489974999684,196.86472849996062,197.56429229996866,197.56429229996866,198.06387939996785,198.0480971999932,198.0488697999972,198.06387939996785,198.2138235999737,198.4136029999936,198.4136029999936,198.897200300009,None,1,,,198.89877159998287,199.41265159996692,200.4119001000072,200.39656439999817,198.91319429996656,198.91319429996656,,,,,,,,,,,,,,,005,001,2025-04-27_22h52.11.370,Cued GoNogo Task,2024.2.4,60.00204007092619,2025-04-27 22h52.19.147494 +0200,
block/CondBlock1.xlsx,You are about to start a block of type 1 trials.,49,49,0,Go,Go,0.12,0.05,0.2,space,blue,horizontal,space,1.6350518999970518,None,space,1,0.2651727999909781,None,,,,0,0,0,0,0,49,49,49,200.4119001000072,,,,,,,,,,,,,,,,200.39700040000025,200.4119001000072,201.1114662999753,201.1114662999753,201.61111989995698,201.5954175000079,201.5962932999828,201.61111989995698,201.74436949996743,201.92728999996325,201.92728999996325,202.19568519998575,space,1,0.2651727999909781,None,202.20016079995548,202.71026359999087,203.70915959996637,203.69339239998953,,,,,,,,,,,,,,,,,005,001,2025-04-27_22h52.11.370,Cued GoNogo Task,2024.2.4,60.00204007092619,2025-04-27 22h52.19.147494 +0200,
block/CondBlock1.xlsx,You are about to start a block of type 1 trials.,50,50,0,Go,Go,0.22,0.2,0.05,space,green,vertical,space,1.6350518999970518,None,space,1,0.219602000026498,None,,,,0,0,0,0,0,50,50,50,203.70915959996637,,,,,,,,,,,,,,,,203.69365490000928,203.70915959996637,204.40872219996527,204.40872219996527,204.90822469996056,204.8921040999703,204.8926986999577,204.90822469996056,205.14161910000257,205.32466499996372,205.32466499996372,205.55877239996335,space,1,0.219602000026498,None,205.56304609996732,206.07383760000812,207.07312789995922,207.05694839998614,,,,,,,,,,,,,,,,,005,001,2025-04-27_22h52.11.370,Cued GoNogo Task,2024.2.4,60.00204007092619,2025-04-27 22h52.19.147494 +0200,
block/CondBlock1.xlsx,You are about to start a block of type 1 trials.,51,51,0,Go,Go,0.28,0.05,0.2,space,green,horizontal,space,1.6350518999970518,None,space,1,0.17457869998179376,None,,,,0,0,0,0,0,51,51,51,207.07312789995922,,,,,,,,,,,,,,,,207.0571168999886,207.07312789995922,207.77262979996158,207.77262979996158,208.2721853000112,208.2562316999538,208.25692670000717,208.2721853000112,208.55527720000828,208.73842369997874,208.73842369997874,208.92250479996437,space,1,0.17457869998179376,None,208.92572800000198,209.43793269997695,210.4370963999536,210.42114190000575,,,,,,,,,,,,,,,,,005,001,2025-04-27_22h52.11.370,Cued GoNogo Task,2024.2.4,60.00204007092619,2025-04-27 22h52.19.147494 +0200,
block/CondBlock1.xlsx,You are about to start a block of type 1 trials.,52,52,0,Go,Go,0.23,0.2,0.05,space,green,vertical,space,1.6350518999970518,None,space,1,0.3236892999848351,None,,,,0,0,0,0,0,52,52,52,210.4370963999536,,,,,,,,,,,,,,,,210.4214216999826,210.4370963999536,211.13626349996775,211.13626349996775,211.63606220000656,211.62015809997683,211.62081309995847,211.63606220000656,211.86933009995846,212.05228459998034,212.05228459998034,212.38670769997407,space,1,0.3236892999848351,None,212.39080049999757,212.90182440000353,213.90093820000766,213.88520039996365,,,,,,,,,,,,,,,,,005,001,2025-04-27_22h52.11.370,Cued GoNogo Task,2024.2.4,60.00204007092619,2025-04-27 22h52.19.147494 +0200,
block/CondBlock1.xlsx,You are about to start a block of type 1 trials.,53,53,0,Go,Go,0.22,0.05,0.2,space,green,horizontal,space,1.6350518999970518,None,space,1,0.1714271999662742,None,,,,0,0,0,0,0,53,53,53,213.90093820000766,,,,,,,,,,,,,,,,213.88553289999254,213.90093820000766,214.60011689999374,214.60011689999374,215.09984149999218,215.08381009998266,215.08443569997326,215.09984149999218,215.33288989996072,215.51613459998043,215.51613459998043,215.70039809995797,space,1,0.1714271999662742,None,215.70446499995887,216.21564020001097,217.21472099999664,217.19871909997892,,,,,,,,,,,,,,,,,005,001,2025-04-27_22h52.11.370,Cued GoNogo Task,2024.2.4,60.00204007092619,2025-04-27 22h52.19.147494 +0200,
block/CondBlock1.xlsx,You are about to start a block of type 1 trials.,54,54,0,NoGo,NoGo,0.14,0.05,0.2,none,green,horizontal,space,1.6350518999970518,None,space,0,0.22986860002856702,None,,,,0,0,0,0,0,54,54,54,217.21472099999664,,,,,,,,,,,,,,,,217.1990096999798,217.21472099999664,217.91412089997903,217.91412089997903,218.41396169998916,218.39773409999907,218.39827219996369,218.41396169998916,218.56365789996926,218.7467482999782,218.7467482999782,218.9808503999957,space,0,0.22986860002856702,None,218.9849586999626,219.49637589999475,220.49551669997163,220.479405399994,,,,,,,,,,,,,,,,,005,001,2025-04-27_22h52.11.370,Cued GoNogo Task,2024.2.4,60.00204007092619,2025-04-27 22h52.19.147494 +0200,
block/CondBlock1.xlsx,You are about to start a block of type 1 trials.,55,55,0,Go,Go,0.15,0.2,0.05,space,blue,vertical,space,1.6350518999970518,None,space,1,0.3162039000308141,None,,,,0,0,0,0,0,55,55,55,220.49551669997163,,,,,,,,,,,,,,,,220.47970119997626,220.49551669997163,221.19482279999647,221.19482279999647,221.69446379999863,221.6783041000017,221.67884879995836,221.69446379999863,221.84425419999752,222.04433329997119,222.04433329997119,222.36343500000658,space,1,0.3162039000308141,None,222.368837099988,222.8767797999899,223.8760053999722,223.86003819998587,,,,,,,,,,,,,,,,,005,001,2025-04-27_22h52.11.370,Cued GoNogo Task,2024.2.4,60.00204007092619,2025-04-27 22h52.19.147494 +0200,
block/CondBlock1.xlsx,You are about to start a block of type 1 trials.,56,56,0,Go,Go,0.47,0.2,0.05,space,blue,vertical,space,1.6350518999970518,None,space,1,0.21881170000415295,None,,,,0,0,0,0,0,56,56,56,223.8760053999722,,,,,,,,,,,,,,,,223.86031009996077,223.8760053999722,224.57552539999597,224.57552539999597,225.0749252999667,225.059269499965,225.06009340001037,225.0749252999667,225.5578728999826,225.7411975999712,225.7411975999712,225.9755598999909,space,1,0.21881170000415295,None,225.97986749996198,226.49052339995978,227.48960249999072,227.47351009998238,,,,,,,,,,,,,,,,,005,001,2025-04-27_22h52.11.370,Cued GoNogo Task,2024.2.4,60.00204007092619,2025-04-27 22h52.19.147494 +0200,
block/CondBlock1.xlsx,You are about to start a block of type 1 trials.,57,57,0,NoGo,NoGo,0.42,0.2,0.05,none,green,vertical,space,1.6350518999970518,None,None,1,,,,,,0,0,0,0,0,57,57,57,227.48960249999072,,,,,,,,,,,,,,,,227.4737247999874,227.48960249999072,228.1891006999649,228.1891006999649,228.68874999997206,228.67257669998799,228.67321239999728,228.68874999997206,229.12183149997145,229.30498279997846,229.30498279997846,229.78842050000094,None,1,,,229.7910273000016,230.3040579999797,231.3033878999995,231.28748979995726,229.8044245999772,229.8044245999772,,,,,,,,,,,,,,,005,001,2025-04-27_22h52.11.370,Cued GoNogo Task,2024.2.4,60.00204007092619,2025-04-27 22h52.19.147494 +0200,
block/CondBlock1.xlsx,You are about to start a block of type 1 trials.,58,58,0,Go,Go,0.22,0.05,0.2,space,green,horizontal,space,1.6350518999970518,None,space,1,0.24875490000704303,None,,,,0,0,0,0,0,58,58,58,231.3033878999995,,,,,,,,,,,,,,,,231.28785550000612,231.3033878999995,232.00263699999778,232.00263699999778,232.50226330000442,232.4864544000011,232.4870607999619,232.50226330000442,232.73537429998396,232.91861930000596,232.91861930000596,233.16973049996886,space,1,0.24875490000704303,None,233.173630699981,233.68459199997596,234.68368849996477,234.66771720000543,,,,,,,,,,,,,,,,,005,001,2025-04-27_22h52.11.370,Cued GoNogo Task,2024.2.4,60.00204007092619,2025-04-27 22h52.19.147494 +0200,
block/CondBlock1.xlsx,You are about to start a block of type 1 trials.,59,59,0,Go,Go,0.3,0.2,0.05,space,blue,vertical,space,1.6350518999970518,None,space,1,0.2337684000376612,None,,,,0,0,0,0,0,59,59,59,234.68368849996477,,,,,,,,,,,,,,,,234.6679896999849,234.68368849996477,235.3829953999957,235.3829953999957,235.88264470000286,235.866783400008,235.8674187999568,235.88264470000286,236.18233729997883,236.38249059999362,236.38249059999362,236.6328763999627,space,1,0.2337684000376612,None,236.63676639995538,237.148291599995,238.14766560000135,238.1315595000051,,,,,,,,,,,,,,,,,005,001,2025-04-27_22h52.11.370,Cued GoNogo Task,2024.2.4,60.00204007092619,2025-04-27 22h52.19.147494 +0200,
block/CondBlock1.xlsx,You are about to start a block of type 1 trials.,60,60,0,NoGo,NoGo,0.24,0.2,0.05,none,blue,vertical,space,1.6350518999970518,None,None,1,,,,,,0,0,0,0,0,60,60,60,238.14766560000135,,,,,,,,,,,,,,,,238.13185760000488,238.14766560000135,238.8469225000008,238.8469225000008,239.34647609997774,239.3306620999938,239.3312943999772,239.34647609997774,239.59633859997848,239.77963159995852,239.77963159995852,240.2631605999777,None,1,,,240.26590659999056,240.7786805999931,241.77799719996983,241.76191959995776,240.27917479997268,240.27917479997268,,,,,,,,,,,,,,,005,001,2025-04-27_22h52.11.370,Cued GoNogo Task,2024.2.4,60.00204007092619,2025-04-27 22h52.19.147494 +0200,
block/CondBlock1.xlsx,You are about to start a block of type 1 trials.,61,61,0,NoGo,NoGo,0.1,0.2,0.05,none,green,vertical,space,1.6350518999970518,None,None,1,,,,,,0,0,0,0,0,61,61,61,241.77799719996983,,,,,,,,,,,,,,,,241.76221299997997,241.77799719996983,242.47726849996252,242.47726849996252,242.97700819995953,242.96145100001013,242.96247829997446,242.97700819995953,243.07687240000814,243.27674000000115,243.27674000000115,243.7602258999832,None,1,,,243.76101379998727,244.27593709999928,245.27512479998404,245.25942709995434,243.77626939996844,243.77626939996844,,,,,,,,,,,,,,,005,001,2025-04-27_22h52.11.370,Cued GoNogo Task,2024.2.4,60.00204007092619,2025-04-27 22h52.19.147494 +0200,
block/CondBlock1.xlsx,You are about to start a block of type 1 trials.,62,62,0,Go,Go,0.45,0.05,0.2,space,blue,horizontal,space,1.6350518999970518,None,space,1,0.2523323000059463,None,,,,0,0,0,0,0,62,62,62,245.27512479998404,,,,,,,,,,,,,,,,245.25969219999388,245.27512479998404,245.97452079999493,245.97452079999493,246.47404729999835,246.4580614999868,246.45871310000075,246.47404729999835,246.92371000000276,247.12354149995372,247.12354149995372,247.3917119000107,space,1,0.2523323000059463,None,247.39542529999744,247.9062879999983,248.90536609996343,248.88955989998067,,,,,,,,,,,,,,,,,005,001,2025-04-27_22h52.11.370,Cued GoNogo Task,2024.2.4,60.00204007092619,2025-04-27 22h52.19.147494 +0200,
block/CondBlock1.xlsx,You are about to start a block of type 1 trials.,63,63,0,Go,Go,0.1,0.05,0.2,space,green,horizontal,space,1.6350518999970518,None,space,1,0.23496730002807453,None,,,,0,0,0,0,0,63,63,63,248.90536609996343,,,,,,,,,,,,,,,,248.8898213999928,248.90536609996343,249.6049150999752,249.6049150999752,250.1044234999572,250.08818049996626,250.088690900011,250.1044234999572,250.20437240001047,250.40420649998123,250.40420649998123,250.65525329997763,space,1,0.23496730002807453,None,250.659440599964,251.17004549998092,252.16933389997575,252.15381859999616,,,,,,,,,,,,,,,,,005,001,2025-04-27_22h52.11.370,Cued GoNogo Task,2024.2.4,60.00204007092619,2025-04-27 22h52.19.147494 +0200,
block/CondBlock1.xlsx,You are about to start a block of type 1 trials.,64,64,0,Go,Go,0.19,0.05,0.2,space,blue,horizontal,space,1.6350518999970518,None,space,1,0.2501575999776833,None,,,,0,0,0,0,0,64,64,64,252.16933389997575,,,,,,,,,,,,,,,,252.15412939997623,252.16933389997575,252.8687410999555,252.8687410999555,253.36844140000176,253.35245760000544,253.35312949999934,253.36844140000176,253.56838869996136,253.75136309996014,253.75136309996014,254.00394939997932,space,1,0.2501575999776833,None,254.0101686999551,254.51741579995723,255.51659279997693,255.50116049998906,,,,,,,,,,,,,,,,,005,001,2025-04-27_22h52.11.370,Cued GoNogo Task,2024.2.4,60.00204007092619,2025-04-27 22h52.19.147494 +0200,
block/CondBlock1.xlsx,You are about to start a block of type 1 trials.,65,65,0,Go,Go,0.21,0.2,0.05,space,blue,vertical,space,1.6350518999970518,None,space,1,0.3643500999896787,None,,,,0,0,0,0,0,65,65,65,255.51659279997693,,,,,,,,,,,,,,,,255.50160550000146,255.51659279997693,256.21616700000595,256.21616700000595,256.7155836999882,256.6998967999825,256.7007754999795,256.7155836999882,256.93210340000223,257.11543599999277,257.11543599999277,257.48314069997286,space,1,0.3643500999896787,None,257.4867404999677,257.9979575999896,258.9971061999677,258.98128079995513,,,,,,,,,,,,,,,,,005,001,2025-04-27_22h52.11.370,Cued GoNogo Task,2024.2.4,60.00204007092619,2025-04-27 22h52.19.147494 +0200,
block/CondBlock1.xlsx,You are about to start a block of type 1 trials.,66,66,0,Go,Go,0.18,0.05,0.2,space,blue,horizontal,space,1.6350518999970518,None,space,1,0.4212474000523798,None,,,,0,0,0,0,0,66,66,66,258.9971061999677,,,,,,,,,,,,,,,,258.9815471000038,258.9971061999677,259.6966834999621,259.6966834999621,260.19607559998985,260.18019859999185,260.18087909999304,260.19607559998985,260.3792384999688,260.5624848000007,260.5624848000007,260.99692669999786,space,1,0.4212474000523798,None,261.0014991000062,261.5117028999957,262.5108182999538,262.4949987999862,,,,,,,,,,,,,,,,,005,001,2025-04-27_22h52.11.370,Cued GoNogo Task,2024.2.4,60.00204007092619,2025-04-27 22h52.19.147494 +0200,
block/CondBlock1.xlsx,You are about to start a block of type 1 trials.,67,67,0,Go,Go,0.29,0.2,0.05,space,green,vertical,space,1.6350518999970518,None,space,1,0.18375480000395328,None,,,,0,0,0,0,0,67,67,67,262.5108182999538,,,,,,,,,,,,,,,,262.4952751999954,262.5108182999538,263.21033400000306,263.21033400000306,263.70997309999075,263.6941080999677,263.6947587999748,263.70997309999075,264.00964489998296,264.192850499996,264.192850499996,264.39365969999926,space,1,0.18375480000395328,None,264.39802259998396,264.9089055999648,265.9081353999791,265.8925064000068,,,,,,,,,,,,,,,,,005,001,2025-04-27_22h52.11.370,Cued GoNogo Task,2024.2.4,60.00204007092619,2025-04-27 22h52.19.147494 +0200,
block/CondBlock1.xlsx,You are about to start a block of type 1 trials.,68,68,0,NoGo,NoGo,0.24,0.2,0.05,none,blue,vertical,space,1.6350518999970518,None,space,0,0.21319260000018403,None,,,,0,0,0,0,0,68,68,68,265.9081353999791,,,,,,,,,,,,,,,,265.8928417999996,265.9081353999791,266.60747559997253,266.60747559997253,267.1071030999883,267.0910394999664,267.09166299999924,267.1071030999883,267.3569690999575,267.53991749999113,267.53991749999113,267.7580238999799,space,0,0.21319260000018403,None,267.7630814999575,268.2726997999707,269.27196209999966,269.25615370000014,,,,,,,,,,,,,,,,,005,001,2025-04-27_22h52.11.370,Cued GoNogo Task,2024.2.4,60.00204007092619,2025-04-27 22h52.19.147494 +0200,
block/CondBlock1.xlsx,You are about to start a block of type 1 trials.,69,69,0,Go,Go,0.27,0.05,0.2,space,green,horizontal,space,1.6350518999970518,None,space,1,0.3583568999893032,None,,,,0,0,0,0,0,69,69,69,269.27196209999966,,,,,,,,,,,,,,,,269.25647219998064,269.27196209999966,269.9714404999977,269.9714404999977,270.47094899998046,270.45509249996394,270.4557791999541,270.47094899998046,270.75425769999856,270.93725620000623,270.93725620000623,271.3045131000108,space,1,0.3583568999893032,None,271.3076708999579,271.8201173999696,,272.8192133999546,,,,,,,,,,,,,,,,,005,001,2025-04-27_22h52.11.370,Cued GoNogo Task,2024.2.4,60.00204007092619,2025-04-27 22h52.19.147494 +0200,
block/CondBlock1.xlsx,You are about to start a block of type 1 trials.,70,70,0,Go,Go,0.25,0.2,0.05,space,green,vertical,space,1.6350518999970518,None,space,1,0.21962289995281026,None,,,,0,0,0,0,0,70,70,70,272.8356619999977,,,,,,,,,,,,,,,,272.819560599979,272.8356619999977,273.5184939999599,273.53519779996714,274.0180479999981,274.00233819999266,274.00303289998556,274.0180479999981,274.267743000004,274.46766869997373,274.46766869997373,274.70213160000276,space,1,0.21962289995281026,None,274.70561070000986,275.2170661999844,276.2162297999603,276.2007394999964,,,,,,,,,,,,,,,,,005,001,2025-04-27_22h52.11.370,Cued GoNogo Task,2024.2.4,60.00204007092619,2025-04-27 22h52.19.147494 +0200,
block/CondBlock1.xlsx,You are about to start a block of type 1 trials.,71,71,0,Go,Go,0.28,0.05,0.2,space,green,horizontal,space,1.6350518999970518,None,space,1,0.25432519998867065,None,,,,0,0,0,0,0,71,71,71,276.2162297999603,,,,,,,,,,,,,,,,276.2010406999616,276.2162297999603,276.91553840000415,276.91553840000415,277.4152755999821,277.3993432999705,277.39993869996397,277.4152755999821,277.69836089998716,277.8816214999533,277.8816214999533,278.149132999999,space,1,0.25432519998867065,None,278.1524026999832,278.66437209997093,,279.6636922999751,,,,,,,,,,,,,,,,,005,001,2025-04-27_22h52.11.370,Cued GoNogo Task,2024.2.4,60.00204007092619,2025-04-27 22h52.19.147494 +0200,
block/CondBlock1.xlsx,You are about to start a block of type 1 trials.,72,72,0,Go,Go,0.14,0.05,0.2,space,blue,horizontal,space,1.6350518999970518,None,space,1,0.21188769995933399,None,,,,0,0,0,0,0,72,72,72,279.6800499999663,,,,,,,,,,,,,,,,279.66403960000025,279.6800499999663,280.3628814999829,280.3793472999823,280.86232019995805,280.8465925999917,280.8472942999797,280.86232019995805,281.0123373999959,281.19545880000805,281.19545880000805,281.4131656999816,space,1,0.21188769995933399,None,281.416682399984,281.9283034999971,282.92735389998415,282.9118321999558,,,,,,,,,,,,,,,,,005,001,2025-04-27_22h52.11.370,Cued GoNogo Task,2024.2.4,60.00204007092619,2025-04-27 22h52.19.147494 +0200,
block/CondBlock1.xlsx,You are about to start a block of type 1 trials.,73,73,0,Go,Go,0.11,0.05,0.2,space,blue,horizontal,space,1.6350518999970518,None,space,1,0.2213698999839835,None,,,,0,0,0,0,0,73,73,73,282.92735389998415,,,,,,,,,,,,,,,,282.9122407999821,282.92735389998415,283.6268812000053,283.6268812000053,284.1264260999742,284.1106889999937,284.111407999997,284.1264260999742,284.24294979998376,284.4262180000078,284.4262180000078,284.6602294999757,space,1,0.2213698999839835,None,284.6639602999785,285.17552059999434,286.1747786999913,286.1590817999677,,,,,,,,,,,,,,,,,005,001,2025-04-27_22h52.11.370,Cued GoNogo Task,2024.2.4,60.00204007092619,2025-04-27 22h52.19.147494 +0200,
block/CondBlock1.xlsx,You are about to start a block of type 1 trials.,74,74,0,Go,Go,0.22,0.2,0.05,space,blue,vertical,space,1.6350518999970518,None,space,1,0.24918969999998808,None,,,,0,0,0,0,0,74,74,74,286.1747786999913,,,,,,,,,,,,,,,,286.15941769996425,286.1747786999913,286.8742783999769,286.8742783999769,287.3737384999986,287.35798139998224,287.35864419996506,287.3737384999986,287.6067951999721,287.79001009999774,287.79001009999774,288.0415832999861,space,1,0.24918969999998808,None,288.0455893999897,288.55595199996606,289.55529429996386,289.5394324999652,,,,,,,,,,,,,,,,,005,001,2025-04-27_22h52.11.370,Cued GoNogo Task,2024.2.4,60.00204007092619,2025-04-27 22h52.19.147494 +0200,
block/CondBlock1.xlsx,You are about to start a block of type 1 trials.,75,75,0,Go,Go,0.26,0.05,0.2,space,blue,horizontal,space,1.6350518999970518,None,space,1,0.21984959999099374,None,,,,0,0,0,0,0,75,75,75,289.55529429996386,,,,,,,,,,,,,,,,289.5396980000078,289.55529429996386,290.25469159998465,290.25469159998465,290.7542728999979,290.73828389996197,290.7388546000002,290.7542728999979,291.0206962999655,291.20401619997574,291.20401619997574,291.43907530000433,space,1,0.21984959999099374,None,291.44477139995433,291.95338099997025,292.95248609996634,292.9369687999715,,,,,,,,,,,,,,,,,005,001,2025-04-27_22h52.11.370,Cued GoNogo Task,2024.2.4,60.00204007092619,2025-04-27 22h52.19.147494 +0200,
block/CondBlock1.xlsx,You are about to start a block of type 1 trials.,76,76,0,Go,Go,0.14,0.2,0.05,space,green,vertical,space,1.6350518999970518,None,space,1,0.33162529999390244,None,,,,0,0,0,0,0,76,76,76,292.95248609996634,,,,,,,,,,,,,,,,292.9373257999541,292.95248609996634,293.65181299997494,293.65181299997494,294.15132710000034,294.13598179997643,294.1369914999814,294.15132710000034,294.3016029999708,294.4847250999883,294.4847250999883,294.8196588999708,space,1,0.33162529999390244,None,294.82329109997954,295.3339556999854,296.33304789999966,296.31731139996555,,,,,,,,,,,,,,,,,005,001,2025-04-27_22h52.11.370,Cued GoNogo Task,2024.2.4,60.00204007092619,2025-04-27 22h52.19.147494 +0200,
block/CondBlock1.xlsx,You are about to start a block of type 1 trials.,77,77,0,Go,Go,0.18,0.05,0.2,space,green,horizontal,space,1.6350518999970518,None,space,1,0.14083049999317154,None,,,,0,0,0,0,0,77,77,77,296.33304789999966,,,,,,,,,,,,,,,,296.317696699989,296.33304789999966,297.0324592999532,297.0324592999532,297.5321324999677,297.516191600007,297.51691669999855,297.5321324999677,297.71504979999736,297.9150582999573,297.9150582999573,298.0662771000061,space,1,0.14083049999317154,None,298.06968389998656,298.58129790000385,299.58040599996457,299.5643531999667,,,,,,,,,,,,,,,,,005,001,2025-04-27_22h52.11.370,Cued GoNogo Task,2024.2.4,60.00204007092619,2025-04-27 22h52.19.147494 +0200,
block/CondBlock1.xlsx,You are about to start a block of type 1 trials.,78,78,0,NoGo,NoGo,0.27,0.05,0.2,none,blue,horizontal,space,1.6350518999970518,None,None,1,,,,,,0,0,0,0,0,78,78,78,299.58040599996457,,,,,,,,,,,,,,,,299.56460639997385,299.58040599996457,300.2799850999727,300.2799850999727,300.7795814999845,300.7633933000034,300.7639866999816,300.7795814999845,301.06249179999577,301.24564599996665,301.24564599996665,301.72910229995614,None,1,,,301.73124759999337,302.22817680001026,303.22742389998166,303.21158860001015,301.7452842000057,301.7452842000057,,,,,,,,,,,,,,,005,001,2025-04-27_22h52.11.370,Cued GoNogo Task,2024.2.4,60.00204007092619,2025-04-27 22h52.19.147494 +0200,
block/CondBlock1.xlsx,You are about to start a block of type 1 trials.,79,79,0,NoGo,NoGo,0.26,0.2,0.05,none,blue,vertical,space,1.6350518999970518,None,None,1,,,,,,0,0,0,0,0,79,79,79,303.22742389998166,,,,,,,,,,,,,,,,303.2119456999935,303.24420339998323,303.943439900002,303.943439900002,304.44311860000016,304.4270051000058,304.4275267999619,304.44311860000016,304.70964789995924,304.89278239995474,304.89278239995474,305.3760346999625,None,1,,,305.37641149997944,305.875203899981,306.8745635999949,306.85841970000183,305.3922373999958,305.3922373999958,,,,,,,,,,,,,,,005,001,2025-04-27_22h52.11.370,Cued GoNogo Task,2024.2.4,60.00204007092619,2025-04-27 22h52.19.147494 +0200,
block/CondBlock1.xlsx,You are about to start a block of type 1 trials.,80,80,0,Go,Go,0.22,0.2,0.05,space,green,vertical,space,1.6350518999970518,None,space,1,0.18940209998982027,None,,,,0,0,0,0,0,80,80,80,306.8745635999949,,,,,,,,,,,,,,,,306.85877409996465,306.89106130000437,307.59049639996374,307.59049639996374,308.0900242999778,308.0745026000077,308.0752696999698,308.0900242999778,308.32321740000043,308.5065307999612,308.5065307999612,308.70753769995645,space,1,0.18940209998982027,None,308.7119811999728,309.22234999999637,310.22161629999755,310.2057799999602,,,,,,,,,,,,,,,,,005,001,2025-04-27_22h52.11.370,Cued GoNogo Task,2024.2.4,60.00204007092619,2025-04-27 22h52.19.147494 +0200,
block/CondBlock1.xlsx,You are about to start a block of type 1 trials.,81,81,0,Go,Go,0.5,0.2,0.05,space,green,vertical,space,1.6350518999970518,None,space,1,0.375621399958618,None,,,,0,0,0,0,0,81,81,81,310.22161629999755,,,,,,,,,,,,,,,,310.20606579998275,310.22161629999755,310.92093359999126,310.92093359999126,311.42057009995915,311.4048041999922,311.4056854000082,311.42057009995915,311.92031479999423,312.12016039999435,312.12016039999435,312.50473019998753,space,1,0.375621399958618,None,312.50925740000093,313.01938049995806,314.0185466000112,314.00261019996833,,,,,,,,,,,,,,,,,005,001,2025-04-27_22h52.11.370,Cued GoNogo Task,2024.2.4,60.00204007092619,2025-04-27 22h52.19.147494 +0200,
block/CondBlock1.xlsx,You are about to start a block of type 1 trials.,82,82,0,Go,Go,0.43,0.05,0.2,space,green,horizontal,space,1.6350518999970518,None,space,1,0.3662532999878749,None,,,,0,0,0,0,0,82,82,82,314.0185466000112,,,,,,,,,,,,,,,,314.00288749998435,314.0185466000112,314.71794909995515,314.71794909995515,315.2173690999625,315.20140949997585,315.20207499997923,315.2173690999625,315.65041529998416,315.8502685999847,315.8502685999847,316.2193159000017,space,1,0.3662532999878749,None,316.22443050000584,316.7329521999927,317.7321698999731,317.71626929997,,,,,,,,,,,,,,,,,005,001,2025-04-27_22h52.11.370,Cued GoNogo Task,2024.2.4,60.00204007092619,2025-04-27 22h52.19.147494 +0200,
block/CondBlock1.xlsx,You are about to start a block of type 1 trials.,83,83,0,Go,Go,0.25,0.2,0.05,space,green,vertical,space,1.6350518999970518,None,space,1,0.22798000002512708,None,,,,0,0,0,0,0,83,83,83,317.7321698999731,,,,,,,,,,,,,,,,317.7165976999677,317.7321698999731,318.4316614999552,318.4316614999552,318.9311111999559,318.91526599996723,318.9158608999569,318.9311111999559,319.18105730001116,319.38074749999214,319.38074749999214,319.61514269997133,space,1,0.22798000002512708,None,319.61848070000997,320.130073599983,321.1293149999692,321.1134430000093,,,,,,,,,,,,,,,,,005,001,2025-04-27_22h52.11.370,Cued GoNogo Task,2024.2.4,60.00204007092619,2025-04-27 22h52.19.147494 +0200,
block/CondBlock1.xlsx,You are about to start a block of type 1 trials.,84,84,0,NoGo,NoGo,0.14,0.2,0.05,none,green,vertical,space,1.6350518999970518,None,None,1,,,,,,0,0,0,0,0,84,84,84,321.1293149999692,,,,,,,,,,,,,,,,321.1137968999683,321.1293149999692,321.82897759997286,321.82897759997286,322.32845209998777,322.3121785999974,322.3127333999728,322.32845209998777,322.4780616000062,322.66140189999714,322.66140189999714,323.1448528000037,None,1,,,323.14707830001134,323.64419500000076,324.64304339996306,324.62739509996027,323.16140109999105,323.16140109999105,,,,,,,,,,,,,,,005,001,2025-04-27_22h52.11.370,Cued GoNogo Task,2024.2.4,60.00204007092619,2025-04-27 22h52.19.147494 +0200,
block/CondBlock1.xlsx,You are about to start a block of type 1 trials.,85,85,0,Go,Go,0.2,0.05,0.2,space,blue,horizontal,space,1.6350518999970518,None,space,1,0.22080660000210628,None,,,,0,0,0,0,0,85,85,85,324.64304339996306,,,,,,,,,,,,,,,,324.6277323999675,324.6597352999961,325.3592572999769,325.3592572999769,325.8586243999889,325.8429477000027,325.84362780000083,325.8586243999889,326.058544599975,326.25841129996115,326.25841129996115,326.492768600001,space,1,0.22080660000210628,None,326.49676339997677,327.00786539999535,328.00705139996717,327.99112269998295,,,,,,,,,,,,,,,,,005,001,2025-04-27_22h52.11.370,Cued GoNogo Task,2024.2.4,60.00204007092619,2025-04-27 22h52.19.147494 +0200,
block/CondBlock1.xlsx,You are about to start a block of type 1 trials.,86,86,0,Go,Go,0.16,0.2,0.05,space,blue,vertical,space,1.6350518999970518,None,space,1,0.3407878000289202,None,,,,0,0,0,0,0,86,86,86,328.00705139996717,,,,,,,,,,,,,,,,327.9914288999862,328.00705139996717,328.7065142999636,328.7065142999636,329.2059800999705,329.19001029996434,329.1905925999745,329.2059800999705,329.3726621000096,329.5557300999644,329.5557300999644,329.9066214999766,space,1,0.3407878000289202,None,329.9103222999838,330.42172220000066,331.42083369998727,331.40503179997904,,,,,,,,,,,,,,,,,005,001,2025-04-27_22h52.11.370,Cued GoNogo Task,2024.2.4,60.00204007092619,2025-04-27 22h52.19.147494 +0200,
block/CondBlock1.xlsx,You are about to start a block of type 1 trials.,87,87,0,Go,Go,0.41,0.2,0.05,space,green,vertical,space,1.6350518999970518,None,space,1,0.2609131000353955,None,,,,0,0,0,0,0,87,87,87,331.42083369998727,,,,,,,,,,,,,,,,331.40529769996647,331.42083369998727,332.1203658999875,332.1203658999875,332.61969979997957,332.60377210000297,332.6044324999675,332.61969979997957,333.03621659998316,333.2191874999553,333.2191874999553,333.48705009999685,space,1,0.2609131000353955,None,333.4915771000087,334.00215660000686,335.0012219999917,334.985912300006,,,,,,,,,,,,,,,,,005,001,2025-04-27_22h52.11.370,Cued GoNogo Task,2024.2.4,60.00204007092619,2025-04-27 22h52.19.147494 +0200,
block/CondBlock1.xlsx,You are about to start a block of type 1 trials.,88,88,0,NoGo,NoGo,0.15,0.2,0.05,none,green,vertical,space,1.6350518999970518,None,None,1,,,,,,0,0,0,0,0,88,88,88,335.0012219999917,,,,,,,,,,,,,,,,334.9863290999783,335.0012219999917,335.7006810999592,335.7006810999592,336.2003124000039,336.18423209997127,336.1847890999634,336.2003124000039,336.35004419996403,336.5500350999646,336.5500350999646,337.0332794999704,None,1,,,337.03505780000705,337.5325094999862,338.53163669997593,338.5154753999668,337.0493263999815,337.0493263999815,,,,,,,,,,,,,,,005,001,2025-04-27_22h52.11.370,Cued GoNogo Task,2024.2.4,60.00204007092619,2025-04-27 22h52.19.147494 +0200,
block/CondBlock1.xlsx,You are about to start a block of type 1 trials.,89,89,0,Go,Go,0.24,0.05,0.2,space,blue,horizontal,space,1.6350518999970518,None,space,1,0.30834359995787963,None,,,,0,0,0,0,0,89,89,89,338.53163669997593,,,,,,,,,,,,,,,,338.5157437999733,338.54842720000306,339.2477850999567,339.2477850999567,339.7472485000035,339.7312239999883,339.7317814999842,339.7472485000035,339.9971384999808,340.18021799996495,340.18021799996495,340.4980574999936,space,1,0.30834359995787963,None,340.50306529999943,341.01304869999876,342.0121667999774,341.99604319996433,,,,,,,,,,,,,,,,,005,001,2025-04-27_22h52.11.370,Cued GoNogo Task,2024.2.4,60.00204007092619,2025-04-27 22h52.19.147494 +0200,
block/CondBlock1.xlsx,You are about to start a block of type 1 trials.,90,90,0,Go,Go,0.25,0.2,0.05,space,blue,vertical,space,1.6350518999970518,None,space,1,0.2825363000156358,None,,,,0,0,0,0,0,90,90,90,342.0121667999774,,,,,,,,,,,,,,,,341.996265499969,342.0121667999774,342.71144210000057,342.71144210000057,343.2111881999881,343.19512509997,343.19593489996623,343.2111881999881,343.4610967999906,343.6609141000081,343.6609141000081,343.945905999979,space,1,0.2825363000156358,None,343.95139169995673,344.4602006999776,345.4593273999635,345.44333049998386,,,,,,,,,,,,,,,,,005,001,2025-04-27_22h52.11.370,Cued GoNogo Task,2024.2.4,60.00204007092619,2025-04-27 22h52.19.147494 +0200,
block/CondBlock1.xlsx,You are about to start a block of type 1 trials.,91,91,0,Go,Go,0.26,0.05,0.2,space,green,horizontal,space,1.6350518999970518,None,space,1,0.22001460002502427,None,,,,0,0,0,0,0,91,91,91,345.4593273999635,,,,,,,,,,,,,,,,345.4436284999829,345.4593273999635,346.1588186000008,346.1588186000008,346.6584964999929,346.64218550000805,346.6427548999782,346.6584964999929,346.92476590001024,347.1080497999792,347.1080497999792,347.3426386999781,space,1,0.22001460002502427,None,347.3475954000023,347.8574883999536,348.85665380000137,348.8404032999533,,,,,,,,,,,,,,,,,005,001,2025-04-27_22h52.11.370,Cued GoNogo Task,2024.2.4,60.00204007092619,2025-04-27 22h52.19.147494 +0200,
block/CondBlock1.xlsx,You are about to start a block of type 1 trials.,92,92,0,NoGo,NoGo,0.44,0.2,0.05,none,blue,vertical,space,1.6350518999970518,None,None,1,,,,,,0,0,0,0,0,92,92,92,348.85665380000137,,,,,,,,,,,,,,,,348.84072279999964,348.85665380000137,349.5559588999604,349.5559588999604,350.0554320999654,350.03975160000846,350.04063090001,350.0554320999654,350.5051305000088,350.68833089998225,350.68833089998225,351.1717487999704,None,1,,,351.1736585999606,351.6709383999696,352.6700610999833,352.65429440001026,351.1878899000003,351.1878899000003,,,,,,,,,,,,,,,005,001,2025-04-27_22h52.11.370,Cued GoNogo Task,2024.2.4,60.00204007092619,2025-04-27 22h52.19.147494 +0200,
block/CondBlock1.xlsx,You are about to start a block of type 1 trials.,93,93,0,Go,Go,0.13,0.2,0.05,space,green,vertical,space,1.6350518999970518,None,space,1,0.25353240000549704,None,,,,0,0,0,0,0,93,93,93,352.6700610999833,,,,,,,,,,,,,,,,352.6546595999971,352.686860399961,353.3861474999576,353.3861474999576,353.8856878000079,353.86986469995463,353.8705747000058,353.8856878000079,354.01906019996386,354.20215490000555,354.20215490000555,354.4698300999589,space,1,0.25353240000549704,None,354.4754815999768,354.984664299991,355.9840003999998,355.96810669999104,,,,,,,,,,,,,,,,,005,001,2025-04-27_22h52.11.370,Cued GoNogo Task,2024.2.4,60.00204007092619,2025-04-27 22h52.19.147494 +0200,
block/CondBlock1.xlsx,You are about to start a block of type 1 trials.,94,94,0,Go,Go,0.44,0.05,0.2,space,blue,horizontal,space,1.6350518999970518,None,space,1,0.3274581999867223,None,,,,0,0,0,0,0,94,94,94,355.9840003999998,,,,,,,,,,,,,,,,355.9683693999541,355.9840003999998,356.6832896999549,356.6832896999549,357.18289449997246,357.16742449998856,357.16813879995607,357.18289449997246,357.6325518999947,357.81606459995965,357.81606459995965,358.1503370999708,space,1,0.3274581999867223,None,358.1540275999578,358.6653253000113,359.6641719999607,359.6485524000018,,,,,,,,,,,,,,,,,005,001,2025-04-27_22h52.11.370,Cued GoNogo Task,2024.2.4,60.00204007092619,2025-04-27 22h52.19.147494 +0200,
block/CondBlock1.xlsx,You are about to start a block of type 1 trials.,95,95,0,Go,Go,0.15,0.2,0.05,space,green,vertical,space,1.6350518999970518,None,space,1,0.19519579998450354,None,,,,0,0,0,0,0,95,95,95,359.6641719999607,,,,,,,,,,,,,,,,359.64886690001003,359.6641719999607,360.3638076999923,360.3638076999923,360.8635500000091,360.8473749999539,360.8480582999764,360.8635500000091,361.0132198999636,361.2129296999774,361.2129296999774,361.41398059995845,space,1,0.19519579998450354,None,361.4177656999673,361.929085199954,362.9283121000044,362.91239720000885,,,,,,,,,,,,,,,,,005,001,2025-04-27_22h52.11.370,Cued GoNogo Task,2024.2.4,60.00204007092619,2025-04-27 22h52.19.147494 +0200,
block/CondBlock1.xlsx,You are about to start a block of type 1 trials.,96,96,0,Go,Go,0.49,0.2,0.05,space,green,vertical,space,1.6350518999970518,None,space,1,0.1978976999525912,None,,,,0,0,0,0,0,96,96,96,362.9283121000044,,,,,,,,,,,,,,,,362.9128135999781,362.9283121000044,363.6277266999823,363.6277266999823,364.12720029999036,364.1116866999655,364.1125011999975,364.12720029999036,364.6266450000112,364.80987459997414,364.80987459997414,365.0109794999589,space,1,0.1978976999525912,None,365.0136605000007,365.52598709997255,366.52508259995375,366.50897540000733,,,,,,,,,,,,,,,,,005,001,2025-04-27_22h52.11.370,Cued GoNogo Task,2024.2.4,60.00204007092619,2025-04-27 22h52.19.147494 +0200,
block/CondBlock1.xlsx,You are about to start a block of type 1 trials.,97,97,0,Go,Go,0.11,0.2,0.05,space,blue,vertical,space,1.6350518999970518,None,space,1,0.2562579999794252,None,,,,0,0,0,0,0,97,97,97,366.52508259995375,,,,,,,,,,,,,,,,366.5092095999862,366.52508259995375,367.2246706999722,367.2246706999722,367.7241896999767,367.70825079997303,367.70879979996243,367.7241896999767,367.84094809996895,368.02411179995397,368.02411179995397,368.2915358999744,space,1,0.2562579999794252,None,368.29412179999053,368.80674029997317,369.8061350999633,369.7898241999792,,,,,,,,,,,,,,,,,005,001,2025-04-27_22h52.11.370,Cued GoNogo Task,2024.2.4,60.00204007092619,2025-04-27 22h52.19.147494 +0200,
block/CondBlock1.xlsx,You are about to start a block of type 1 trials.,98,98,0,Go,Go,0.26,0.05,0.2,space,green,horizontal,space,1.6350518999970518,None,space,1,0.2504905000096187,None,,,,0,0,0,0,0,98,98,98,369.8061350999633,,,,,,,,,,,,,,,,369.79008609999437,369.8061350999633,370.5052890999941,370.5052890999941,371.00488019996556,370.9892822999973,370.9901078999974,371.00488019996556,371.27126969996607,371.4545844999957,371.4545844999957,371.7219315999537,space,1,0.2504905000096187,None,371.726058500004,372.2372871999978,373.23662499996135,373.2205302999937,,,,,,,,,,,,,,,,,005,001,2025-04-27_22h52.11.370,Cued GoNogo Task,2024.2.4,60.00204007092619,2025-04-27 22h52.19.147494 +0200,
block/CondBlock1.xlsx,You are about to start a block of type 1 trials.,99,99,0,Go,Go,0.28,0.05,0.2,space,green,horizontal,space,1.6350518999970518,None,space,1,0.21934239997062832,None,,,,0,0,0,0,0,99,99,99,373.23662499996135,,,,,,,,,,,,,,,,373.22080979996826,373.23662499996135,373.93580649996875,373.93580649996875,374.4354141000076,374.41969479998806,374.42045289999805,374.4354141000076,374.71853899996495,374.90176609996706,374.90176609996706,375.13577039999655,space,1,0.21934239997062832,None,375.1390193999978,375.6511548999697,376.650951299991,376.63415019999957,,,,,,,,,,,,,,,,,005,001,2025-04-27_22h52.11.370,Cued GoNogo Task,2024.2.4,60.00204007092619,2025-04-27 22h52.19.147494 +0200,
block/CondBlock1.xlsx,You are about to start a block of type 1 trials.,0,0,0,,,,,,,,,space,1.6350518999970518,None,,,,,space,0.8460644999868236,None,0,0,0,0,,,,,,,,,,,,,,,,,,,,,,,,,,,,,,,,,,,,,,,,,,,376.64824670000235,376.650951299991,376.650951299991,377.5006762999692,space,0.8460644999868236,None,,,,,,,,005,001,2025-04-27_22h52.11.370,Cued GoNogo Task,2024.2.4,60.00204007092619,2025-04-27 22h52.19.147494 +0200,
block/CondBlock2.xlsx,You are about to start a block of type 2 trials.,0,0,0,Go,Go,0.18,0.05,0.2,space,green,horizontal,space,249.09130339999683,None,space,1,0.27049750002333894,None,,,,0,1,1,1,0,0,0,0,626.6467616999871,,,,,,,,,377.5051986000035,377.5161991000059,377.5161991000059,626.6122334999964,space,249.09130339999683,None,626.6443068999797,626.6467616999871,627.3272186999675,627.3605167999631,627.827135999978,627.8114035999752,627.8123239999986,627.827135999978,628.0102249999763,628.1934281999711,628.1934281999711,628.4777522999793,space,1,0.27049750002333894,None,628.4824405999971,628.9927210999886,629.991896099993,629.9763893999625,,,,,,,,,,,,,,,,,005,001,2025-04-27_22h52.11.370,Cued GoNogo Task,2024.2.4,60.00204007092619,2025-04-27 22h52.19.147494 +0200,
block/CondBlock2.xlsx,You are about to start a block of type 2 trials.,1,1,0,Go,Go,0.2,0.2,0.05,space,green,vertical,space,249.09130339999683,None,space,1,0.24125600000843406,None,,,,0,1,1,1,0,1,1,1,629.991896099993,,,,,,,,,,,,,,,,629.976726999972,629.991896099993,630.6912946999655,630.6912946999655,631.19094890001,631.1749761999818,631.1755445000017,631.19094890001,631.3909336999641,631.5907312000054,631.5907312000054,631.8416604999802,space,1,0.24125600000843406,None,631.8452903999714,632.3567386000068,633.3557708999724,633.3403046999592,,,,,,,,,,,,,,,,,005,001,2025-04-27_22h52.11.370,Cued GoNogo Task,2024.2.4,60.00204007092619,2025-04-27 22h52.19.147494 +0200,
block/CondBlock2.xlsx,You are about to start a block of type 2 trials.,2,2,0,Go,Go,0.22,0.05,0.2,space,blue,horizontal,space,249.09130339999683,None,space,1,0.23720719997072592,None,,,,0,1,1,1,0,2,2,2,633.3557708999724,,,,,,,,,,,,,,,,633.340658799978,633.3557708999724,634.0552319999551,634.0552319999551,634.554791099974,634.5390123999678,634.5396480999771,634.554791099974,634.7880805999739,634.9711159999715,634.9711159999715,635.2222956999904,space,1,0.23720719997072592,None,635.2271328999777,635.7370910999598,636.7363462999929,636.7203812999651,,,,,,,,,,,,,,,,,005,001,2025-04-27_22h52.11.370,Cued GoNogo Task,2024.2.4,60.00204007092619,2025-04-27 22h52.19.147494 +0200,
block/CondBlock2.xlsx,You are about to start a block of type 2 trials.,3,3,0,Go,Go,0.14,0.05,0.2,space,green,horizontal,space,249.09130339999683,None,space,1,0.3229714999906719,None,,,,0,1,1,1,0,3,3,3,636.7363462999929,,,,,,,,,,,,,,,,636.7207405999652,636.7363462999929,637.4358114000061,637.4358114000061,637.9353386999574,637.9196569999913,637.9202854000032,637.9353386999574,638.0854428999592,638.2685273999814,638.2685273999814,638.6028004999971,space,1,0.3229714999906719,None,638.6074142999714,639.1177212999901,640.1170998999733,640.1010693999706,,,,,,,,,,,,,,,,,005,001,2025-04-27_22h52.11.370,Cued GoNogo Task,2024.2.4,60.00204007092619,2025-04-27 22h52.19.147494 +0200,
block/CondBlock2.xlsx,You are about to start a block of type 2 trials.,4,4,0,Go,Go,0.26,0.05,0.2,space,blue,horizontal,space,249.09130339999683,None,space,1,0.2664781999774277,None,,,,0,1,1,1,0,4,4,4,640.1170998999733,,,,,,,,,,,,,,,,640.101414499979,640.1170998999733,640.8162523999927,640.8162523999927,641.3158681999776,641.3000666999724,641.3007690999657,641.3158681999776,641.5823700999608,641.7655407999991,641.7655407999991,642.033813899965,space,1,0.2664781999774277,None,642.036847899959,642.5482022999786,643.5474595999694,643.5313358999556,,,,,,,,,,,,,,,,,005,001,2025-04-27_22h52.11.370,Cued GoNogo Task,2024.2.4,60.00204007092619,2025-04-27 22h52.19.147494 +0200,
block/CondBlock2.xlsx,You are about to start a block of type 2 trials.,5,5,0,Go,Go,0.1,0.05,0.2,space,blue,horizontal,space,249.09130339999683,None,None,0,,,,,,0,1,1,1,0,5,5,5,643.5474595999694,,,,,,,,,,,,,,,,643.5316196999629,643.5474595999694,644.2468243999756,644.2468243999756,644.7466291000019,644.7304890999803,644.7310974999564,644.7466291000019,644.8463547999854,645.0462599999737,645.0462599999737,645.5300240999786,None,0,,,645.534879999992,646.0453789999592,647.04461729998,647.0287312999717,645.5456115999841,645.5456115999841,,,,,,,,,,,,,,,005,001,2025-04-27_22h52.11.370,Cued GoNogo Task,2024.2.4,60.00204007092619,2025-04-27 22h52.19.147494 +0200,
block/CondBlock2.xlsx,You are about to start a block of type 2 trials.,6,6,0,NoGo,NoGo,0.3,0.2,0.05,none,green,vertical,space,249.09130339999683,None,None,1,,,,,,0,1,1,1,0,6,6,6,647.04461729998,,,,,,,,,,,,,,,,647.0289883000078,647.04461729998,647.7439833999961,647.7439833999961,648.2435160999885,648.2276985999779,648.2283140000072,648.2435160999885,648.5434871999896,648.7431662000017,648.7431662000017,649.2268030999694,None,1,,,649.2296350999968,649.7256531000021,650.7247642999864,650.7090705999872,649.2427535000024,649.2427535000024,,,,,,,,,,,,,,,005,001,2025-04-27_22h52.11.370,Cued GoNogo Task,2024.2.4,60.00204007092619,2025-04-27 22h52.19.147494 +0200,
block/CondBlock2.xlsx,You are about to start a block of type 2 trials.,7,7,0,NoGo,NoGo,0.14,0.05,0.2,none,blue,horizontal,space,249.09130339999683,None,space,0,0.222089099988807,None,,,,0,1,1,1,0,7,7,7,650.7247642999864,,,,,,,,,,,,,,,,650.7094100000104,650.7415229000035,651.4409369999776,651.4409369999776,651.940574200009,651.924842999957,651.9254714999697,651.940574200009,652.0903854999924,652.2736085999641,652.2736085999641,652.5079080999712,space,0,0.222089099988807,None,652.5119510999648,653.0231649999623,654.0221156000043,654.0063790999702,,,,,,,,,,,,,,,,,005,001,2025-04-27_22h52.11.370,Cued GoNogo Task,2024.2.4,60.00204007092619,2025-04-27 22h52.19.147494 +0200,
block/CondBlock2.xlsx,You are about to start a block of type 2 trials.,8,8,0,Go,Go,0.13,0.2,0.05,space,blue,vertical,space,249.09130339999683,None,space,1,0.30167159996926785,None,,,,0,1,1,1,0,8,8,8,654.0221156000043,,,,,,,,,,,,,,,,654.0067122000037,654.0221156000043,654.7215594999725,654.7215594999725,655.2213199999533,655.2056690999889,655.2064794999897,655.2213199999533,655.3541495999671,655.5376364999684,655.5376364999684,655.8550318999914,space,1,0.30167159996926785,None,655.8588921999908,656.3703502999851,657.3695320999832,657.3534309999668,,,,,,,,,,,,,,,,,005,001,2025-04-27_22h52.11.370,Cued GoNogo Task,2024.2.4,60.00204007092619,2025-04-27 22h52.19.147494 +0200,
block/CondBlock2.xlsx,You are about to start a block of type 2 trials.,9,9,0,Go,Go,0.43,0.2,0.05,space,green,vertical,space,249.09130339999683,None,None,0,,,,,,0,1,1,1,0,9,9,9,657.3695320999832,,,,,,,,,,,,,,,,657.3537245999905,657.3695320999832,658.0689022999723,658.0689022999723,658.5683831999777,658.5528903999948,658.5537595999776,658.5683831999777,659.0014715999714,659.1844576000003,659.1844576000003,659.6683688999619,None,0,,,659.6721644999925,660.1836722999578,661.1829668999999,661.1671222999576,659.6840643999749,659.6840643999749,,,,,,,,,,,,,,,005,001,2025-04-27_22h52.11.370,Cued GoNogo Task,2024.2.4,60.00204007092619,2025-04-27 22h52.19.147494 +0200,
block/CondBlock2.xlsx,You are about to start a block of type 2 trials.,10,10,0,Go,Go,0.14,0.2,0.05,space,green,vertical,space,249.09130339999683,None,space,1,0.23806969996076077,None,,,,0,1,1,1,0,10,10,10,661.1829668999999,,,,,,,,,,,,,,,,661.1674214999657,661.1829668999999,661.8822909999872,661.8822909999872,662.38196899998,662.3657963000005,662.3663314000005,662.38196899998,662.5318238000036,662.7148866999778,662.7148866999778,662.9660482999752,space,1,0.23806969996076077,None,662.9703631000011,663.4812228999799,664.4801380999852,664.4646642999724,,,,,,,,,,,,,,,,,005,001,2025-04-27_22h52.11.370,Cued GoNogo Task,2024.2.4,60.00204007092619,2025-04-27 22h52.19.147494 +0200,
block/CondBlock2.xlsx,You are about to start a block of type 2 trials.,11,11,0,Go,Go,0.27,0.2,0.05,space,green,vertical,space,249.09130339999683,None,space,1,0.39007279998622835,None,,,,0,1,1,1,0,11,11,11,664.4801380999852,,,,,,,,,,,,,,,,664.4651813000091,664.4801380999852,665.1797510999604,665.1797510999604,665.6792188999825,665.6633202999947,665.663839099987,665.6792188999825,665.9623862999724,666.1454844999826,666.1454844999826,666.5464586999733,space,1,0.39007279998622835,None,666.5508166999789,667.0613033999689,668.0606656000018,668.0447561999899,,,,,,,,,,,,,,,,,005,001,2025-04-27_22h52.11.370,Cued GoNogo Task,2024.2.4,60.00204007092619,2025-04-27 22h52.19.147494 +0200,
block/CondBlock2.xlsx,You are about to start a block of type 2 trials.,12,12,0,Go,Go,0.3,0.05,0.2,space,green,horizontal,space,249.09130339999683,None,space,1,0.2093491000123322,None,,,,0,1,1,1,0,12,12,12,668.0606656000018,,,,,,,,,,,,,,,,668.0450595999719,668.0606656000018,668.7601391999633,668.7601391999633,669.2595588999684,669.2439592999872,669.244695500005,669.2595588999684,669.5593307999661,669.7594275999581,669.7594275999581,669.9766476000077,space,1,0.2093491000123322,None,669.9794252999709,670.4918855999713,671.4911568000098,671.4750676999683,,,,,,,,,,,,,,,,,005,001,2025-04-27_22h52.11.370,Cued GoNogo Task,2024.2.4,60.00204007092619,2025-04-27 22h52.19.147494 +0200,
block/CondBlock2.xlsx,You are about to start a block of type 2 trials.,13,13,0,Go,Go,0.18,0.2,0.05,space,blue,vertical,space,249.09130339999683,None,space,1,0.3591508999816142,None,,,,0,1,1,1,0,13,13,13,671.4911568000098,,,,,,,,,,,,,,,,671.4753404000076,671.4911568000098,672.1905170999817,672.1905170999817,672.690097499988,672.6740544000058,672.6745455999626,672.690097499988,672.8733829999692,673.0567047999939,673.0567047999939,673.4240070999949,space,1,0.3591508999816142,None,673.4276892999769,673.9392250999808,674.9382965999539,674.9225761999842,,,,,,,,,,,,,,,,,005,001,2025-04-27_22h52.11.370,Cued GoNogo Task,2024.2.4,60.00204007092619,2025-04-27 22h52.19.147494 +0200,
block/CondBlock2.xlsx,You are about to start a block of type 2 trials.,14,14,0,Go,Go,0.13,0.2,0.05,space,green,vertical,space,249.09130339999683,None,space,1,0.21755040000425652,None,,,,0,1,1,1,0,14,14,14,674.9382965999539,,,,,,,,,,,,,,,,674.9229531000019,674.9382965999539,675.6375753000029,675.6375753000029,676.1374693000107,676.1214022999629,676.1221308999811,676.1374693000107,676.270592099987,676.4537137000007,676.4537137000007,676.6883605999756,space,1,0.21755040000425652,None,676.6927877999842,677.203062399989,678.2021798999631,678.1863916000002,,,,,,,,,,,,,,,,,005,001,2025-04-27_22h52.11.370,Cued GoNogo Task,2024.2.4,60.00204007092619,2025-04-27 22h52.19.147494 +0200,
block/CondBlock2.xlsx,You are about to start a block of type 2 trials.,15,15,0,Go,Go,0.18,0.2,0.05,space,blue,vertical,space,249.09130339999683,None,space,1,0.2248142000171356,None,,,,0,1,1,1,0,15,15,15,678.2021798999631,,,,,,,,,,,,,,,,678.1866959999898,678.2021798999631,678.9018314999994,678.9018314999994,679.4012451999588,679.3854357000091,679.3861986999982,679.4012451999588,679.584506299987,679.7675983000081,679.7675983000081,680.0026321999612,space,1,0.2248142000171356,None,680.0076716999756,680.5170224999893,681.5161256999709,681.5003346999874,,,,,,,,,,,,,,,,,005,001,2025-04-27_22h52.11.370,Cued GoNogo Task,2024.2.4,60.00204007092619,2025-04-27 22h52.19.147494 +0200,
block/CondBlock2.xlsx,You are about to start a block of type 2 trials.,16,16,0,Go,Go,0.24,0.2,0.05,space,green,vertical,space,249.09130339999683,None,space,1,0.25993830000516027,None,,,,0,1,1,1,0,16,16,16,681.5161256999709,,,,,,,,,,,,,,,,681.5006150999689,681.5161256999709,682.2156884999713,682.2156884999713,682.7151217999635,682.6995283999713,682.7003340999945,682.7151217999635,682.9649198999978,683.1480789000052,683.1480789000052,683.4158928999677,space,1,0.25993830000516027,None,683.4202209999785,683.9309064999688,684.9301899999846,684.9144965999876,,,,,,,,,,,,,,,,,005,001,2025-04-27_22h52.11.370,Cued GoNogo Task,2024.2.4,60.00204007092619,2025-04-27 22h52.19.147494 +0200,
block/CondBlock2.xlsx,You are about to start a block of type 2 trials.,17,17,0,Go,Go,0.26,0.2,0.05,space,blue,vertical,space,249.09130339999683,None,space,1,0.3094674000167288,None,,,,0,1,1,1,0,17,17,17,684.9301899999846,,,,,,,,,,,,,,,,684.9149863999919,684.9301899999846,685.6295399999944,685.6295399999944,686.1290531999548,686.1131718999823,686.1137949999538,686.1290531999548,686.3955952000106,686.5786887999857,686.5786887999857,686.896385399974,space,1,0.3094674000167288,None,686.9000063999556,687.4113443999668,688.4104936000076,688.3947263999726,,,,,,,,,,,,,,,,,005,001,2025-04-27_22h52.11.370,Cued GoNogo Task,2024.2.4,60.00204007092619,2025-04-27 22h52.19.147494 +0200,
block/CondBlock2.xlsx,You are about to start a block of type 2 trials.,18,18,0,Go,Go,0.1,0.05,0.2,space,blue,horizontal,space,249.09130339999683,None,space,1,0.23398040002211928,None,,,,0,1,1,1,0,18,18,18,688.4104936000076,,,,,,,,,,,,,,,,688.3950658999966,688.4104936000076,689.1101483000093,689.1101483000093,689.609500099963,689.5936829999555,689.5942372999853,689.609500099963,689.7093908999814,689.9093582999776,689.9093582999776,690.1599004999734,space,1,0.23398040002211928,None,690.1633090999676,690.6764393000049,,691.6747238999815,,,,,,,,,,,,,,,,,005,001,2025-04-27_22h52.11.370,Cued GoNogo Task,2024.2.4,60.00204007092619,2025-04-27 22h52.19.147494 +0200,
block/CondBlock2.xlsx,You are about to start a block of type 2 trials.,19,19,0,Go,Go,0.46,0.2,0.05,space,blue,vertical,space,249.09130339999683,None,space,1,0.2614869000390172,None,,,,0,1,1,1,0,19,19,19,691.6910863000085,,,,,,,,,,,,,,,,691.675015899993,691.6910863000085,692.3739440999925,692.3906914999825,692.8735957999597,692.857661099988,692.8583380999626,692.8735957999597,693.3398870999808,693.5229805999552,693.5229805999552,693.7907793999766,space,1,0.2614869000390172,None,693.7950610999833,694.3057192999986,695.3049911999842,695.2888615999836,,,,,,,,,,,,,,,,,005,001,2025-04-27_22h52.11.370,Cued GoNogo Task,2024.2.4,60.00204007092619,2025-04-27 22h52.19.147494 +0200,
block/CondBlock2.xlsx,You are about to start a block of type 2 trials.,20,20,0,Go,Go,0.3,0.05,0.2,space,blue,horizontal,space,249.09130339999683,None,space,1,0.25186309998389333,None,,,,0,1,1,1,0,20,20,20,695.3049911999842,,,,,,,,,,,,,,,,695.2891170000075,695.3049911999842,696.0043561999919,696.0043561999919,696.5039187999791,696.4878667999874,696.4885267000063,696.5039187999791,696.8037663999712,697.0034300999832,697.0034300999832,697.2707659999724,space,1,0.25186309998389333,None,697.2750267999945,697.7861513000098,698.7853934000013,698.76954259997,,,,,,,,,,,,,,,,,005,001,2025-04-27_22h52.11.370,Cued GoNogo Task,2024.2.4,60.00204007092619,2025-04-27 22h52.19.147494 +0200,
block/CondBlock2.xlsx,You are about to start a block of type 2 trials.,21,21,0,Go,Go,0.23,0.05,0.2,space,green,horizontal,space,249.09130339999683,None,space,1,0.3273788999649696,None,,,,0,1,1,1,0,21,21,21,698.7853934000013,,,,,,,,,,,,,,,,698.7699347999878,698.7853934000013,699.4848038000055,699.4848038000055,699.9843953999807,699.9687094999827,699.9696711999713,699.9843953999807,700.2175581000047,700.4007019999553,700.4007019999553,700.7345418999903,space,1,0.3273788999649696,None,700.7373291999684,701.2501995000057,,702.2494767999742,,,,,,,,,,,,,,,,,005,001,2025-04-27_22h52.11.370,Cued GoNogo Task,2024.2.4,60.00204007092619,2025-04-27 22h52.19.147494 +0200,
block/CondBlock2.xlsx,You are about to start a block of type 2 trials.,22,22,0,Go,Go,0.19,0.2,0.05,space,green,vertical,space,249.09130339999683,None,space,1,0.2089931999798864,None,,,,0,1,1,1,0,22,22,22,702.2658287999802,,,,,,,,,,,,,,,,702.2498070999864,702.2658287999802,702.9484009000007,702.9650326999836,703.4481064999709,703.4324749999796,703.4328625999624,703.4481064999709,703.6480607999838,703.8311391999596,703.8311391999596,704.048628199962,space,1,0.2089931999798864,None,704.0522541999817,704.5639945999719,705.5631186999963,705.5471473999787,,,,,,,,,,,,,,,,,005,001,2025-04-27_22h52.11.370,Cued GoNogo Task,2024.2.4,60.00204007092619,2025-04-27 22h52.19.147494 +0200,
block/CondBlock2.xlsx,You are about to start a block of type 2 trials.,23,23,0,NoGo,NoGo,0.41,0.2,0.05,none,blue,vertical,space,249.09130339999683,None,space,0,0.15918289998080581,None,,,,0,1,1,1,0,23,23,23,705.5631186999963,,,,,,,,,,,,,,,,705.5473820999614,705.5631186999963,706.2625281999935,706.2625281999935,706.7620281999698,706.7462569999625,706.7468644999899,706.7620281999698,707.17849630001,707.3616603999981,707.3616603999981,707.5294411999639,space,0,0.15918289998080581,None,707.534938399971,708.0445458999602,709.043530099967,709.0275822000112,,,,,,,,,,,,,,,,,005,001,2025-04-27_22h52.11.370,Cued GoNogo Task,2024.2.4,60.00204007092619,2025-04-27 22h52.19.147494 +0200,
block/CondBlock2.xlsx,You are about to start a block of type 2 trials.,24,24,0,Go,Go,0.17,0.2,0.05,space,blue,vertical,space,249.09130339999683,None,space,1,0.21448409999720752,None,,,,0,1,1,1,0,24,24,24,709.043530099967,,,,,,,,,,,,,,,,709.0278360999655,709.043530099967,709.7431128000026,709.7431128000026,710.2425443999819,710.2266127999756,710.227226899995,710.2425443999819,710.4257133000065,710.6089381999918,710.6089381999918,710.8275387999602,space,1,0.21448409999720752,None,710.831609099987,711.3417607999872,712.3408036999754,712.3248641999671,,,,,,,,,,,,,,,,,005,001,2025-04-27_22h52.11.370,Cued GoNogo Task,2024.2.4,60.00204007092619,2025-04-27 22h52.19.147494 +0200,
block/CondBlock2.xlsx,You are about to start a block of type 2 trials.,25,25,0,Go,Go,0.27,0.05,0.2,space,blue,horizontal,space,249.09130339999683,None,space,1,0.20136160001857206,None,,,,0,1,1,1,0,25,25,25,712.3408036999754,,,,,,,,,,,,,,,,712.3251703999704,712.3408036999754,713.0401879999554,713.0401879999554,713.5398417999968,713.5238510000054,713.5243598999805,713.5398417999968,713.8229645999963,714.0063991000061,714.0063991000061,714.2236891000066,space,1,0.20136160001857206,None,714.2274331999943,714.738901100005,715.7381805999903,715.7220309000113,,,,,,,,,,,,,,,,,005,001,2025-04-27_22h52.11.370,Cued GoNogo Task,2024.2.4,60.00204007092619,2025-04-27 22h52.19.147494 +0200,
block/CondBlock2.xlsx,You are about to start a block of type 2 trials.,26,26,0,Go,Go,0.26,0.05,0.2,space,green,horizontal,space,249.09130339999683,None,space,1,0.2529039999935776,None,,,,0,1,1,1,0,26,26,26,715.7381805999903,,,,,,,,,,,,,,,,715.7223535999656,715.7381805999903,716.4376677999971,716.4376677999971,716.9370930999867,716.9211349999532,716.9217140999972,716.9370930999867,717.2034688999993,717.3869416000089,717.3869416000089,717.6546726999804,space,1,0.2529039999935776,None,717.6596334999776,718.1693426999846,719.168561199971,719.1527542999829,,,,,,,,,,,,,,,,,005,001,2025-04-27_22h52.11.370,Cued GoNogo Task,2024.2.4,60.00204007092619,2025-04-27 22h52.19.147494 +0200,
block/CondBlock2.xlsx,You are about to start a block of type 2 trials.,27,27,0,Go,Go,0.22,0.2,0.05,space,green,vertical,space,249.09130339999683,None,space,1,0.24833470000885427,None,,,,0,1,1,1,0,27,27,27,719.168561199971,,,,,,,,,,,,,,,,719.1530756999855,719.168561199971,719.8680371000082,719.8680371000082,720.3676215999876,720.3516008000006,720.3521879999898,720.3676215999876,720.6009037999902,720.7838975999621,720.7838975999621,721.03549629997,space,1,0.24833470000885427,None,721.0392871999647,721.5500197999645,722.5491340999724,722.533128399984,,,,,,,,,,,,,,,,,005,001,2025-04-27_22h52.11.370,Cued GoNogo Task,2024.2.4,60.00204007092619,2025-04-27 22h52.19.147494 +0200,
block/CondBlock2.xlsx,You are about to start a block of type 2 trials.,28,28,0,Go,Go,0.19,0.05,0.2,space,blue,horizontal,space,249.09130339999683,None,space,1,0.2767183000105433,None,,,,0,1,1,1,0,28,28,28,722.5491340999724,,,,,,,,,,,,,,,,722.5333755000029,722.5491340999724,723.2484761999804,723.2484761999804,723.748179599992,723.7322142999619,723.7328309000004,723.748179599992,723.9481034000055,724.1312613000046,724.1312613000046,724.4160511000082,space,1,0.2767183000105433,None,724.4212665999657,724.9305663999985,725.9297700999887,725.9139670999721,,,,,,,,,,,,,,,,,005,001,2025-04-27_22h52.11.370,Cued GoNogo Task,2024.2.4,60.00204007092619,2025-04-27 22h52.19.147494 +0200,
block/CondBlock2.xlsx,You are about to start a block of type 2 trials.,29,29,0,Go,Go,0.18,0.05,0.2,space,blue,horizontal,space,249.09130339999683,None,space,1,0.23261700000148267,None,,,,0,1,1,1,0,29,29,29,725.9297700999887,,,,,,,,,,,,,,,,725.9143263999722,725.9297700999887,726.6290861999732,726.6290861999732,727.1289137999993,727.1127741999808,727.1134452999686,727.1289137999993,727.3119520999608,727.5119589999667,727.5119589999667,727.7472648000112,space,1,0.23261700000148267,None,727.7518819999532,728.261173899984,729.2602961999946,729.2445599999628,,,,,,,,,,,,,,,,,005,001,2025-04-27_22h52.11.370,Cued GoNogo Task,2024.2.4,60.00204007092619,2025-04-27 22h52.19.147494 +0200,
block/CondBlock2.xlsx,You are about to start a block of type 2 trials.,30,30,0,NoGo,NoGo,0.23,0.2,0.05,none,blue,vertical,space,249.09130339999683,None,space,0,0.22020809998502955,None,,,,0,1,1,1,0,30,30,30,729.2602961999946,,,,,,,,,,,,,,,,729.2449172000051,729.2602961999946,729.959639699955,729.959639699955,730.4592698999913,730.4434155999916,730.444106299954,730.4592698999913,730.6923713999568,730.892151499982,730.892151499982,731.1264100999688,space,0,0.22020809998502955,None,731.1310008,731.6418147999793,,732.640955699957,,,,,,,,,,,,,,,,,005,001,2025-04-27_22h52.11.370,Cued GoNogo Task,2024.2.4,60.00204007092619,2025-04-27 22h52.19.147494 +0200,
block/CondBlock2.xlsx,You are about to start a block of type 2 trials.,31,31,0,Go,Go,0.43,0.2,0.05,space,green,vertical,space,249.09130339999683,None,space,1,0.38422030000947416,None,,,,0,1,1,1,0,31,31,31,732.6576342000044,,,,,,,,,,,,,,,,732.6412182999775,732.6576342000044,733.3402667999617,733.3568239999586,733.8398600000073,733.8240661000018,733.8248060999904,733.8398600000073,734.2727954000002,734.4558787999558,734.4558787999558,734.856913399999,space,1,0.38422030000947416,None,734.8614165000035,735.3719151999685,736.3710957999574,736.3554841000005,,,,,,,,,,,,,,,,,005,001,2025-04-27_22h52.11.370,Cued GoNogo Task,2024.2.4,60.00204007092619,2025-04-27 22h52.19.147494 +0200,
block/CondBlock2.xlsx,You are about to start a block of type 2 trials.,32,32,0,Go,Go,0.13,0.05,0.2,space,blue,horizontal,space,249.09130339999683,None,space,1,0.2814829000271857,None,,,,0,1,1,1,0,32,32,32,736.3710957999574,,,,,,,,,,,,,,,,736.355797199998,736.3710957999574,737.0705942999921,737.0705942999921,737.570112299989,737.5542172999703,737.5550995999947,737.570112299989,737.703339700005,737.8866577000008,737.8866577000008,738.1710968999541,space,1,0.2814829000271857,None,738.1746773999766,738.6859465999878,739.6849147999892,739.6689758999855,,,,,,,,,,,,,,,,,005,001,2025-04-27_22h52.11.370,Cued GoNogo Task,2024.2.4,60.00204007092619,2025-04-27 22h52.19.147494 +0200,
block/CondBlock2.xlsx,You are about to start a block of type 2 trials.,33,33,0,Go,Go,0.45,0.05,0.2,space,green,horizontal,space,249.09130339999683,None,space,1,0.3628298999974504,None,,,,0,1,1,1,0,33,33,33,739.6849147999892,,,,,,,,,,,,,,,,739.6692095999606,739.6849147999892,740.3845377999824,740.3845377999824,740.8839986000094,740.8682369999588,740.8690733999829,740.8839986000094,741.3337281999993,741.5335192999919,741.5335192999919,741.9012507000007,space,1,0.3628298999974504,None,741.9051693999791,742.4161248999881,743.4152182000107,743.3994536999962,,,,,,,,,,,,,,,,,005,001,2025-04-27_22h52.11.370,Cued GoNogo Task,2024.2.4,60.00204007092619,2025-04-27 22h52.19.147494 +0200,
block/CondBlock2.xlsx,You are about to start a block of type 2 trials.,34,34,0,Go,Go,0.14,0.2,0.05,space,blue,vertical,space,249.09130339999683,None,space,1,0.26028550002956763,None,,,,0,1,1,1,0,34,34,34,743.4152182000107,,,,,,,,,,,,,,,,743.399806100002,743.4152182000107,744.114652499964,744.114652499964,744.6143070000107,744.5982252999675,744.5988176999963,744.6143070000107,744.7642420000047,744.947530400008,744.947530400008,745.2152538999799,space,1,0.26028550002956763,None,745.2195901999949,745.7301894999691,746.729263599962,746.7134728999808,,,,,,,,,,,,,,,,,005,001,2025-04-27_22h52.11.370,Cued GoNogo Task,2024.2.4,60.00204007092619,2025-04-27 22h52.19.147494 +0200,
block/CondBlock2.xlsx,You are about to start a block of type 2 trials.,35,35,0,Go,Go,0.11,0.2,0.05,space,blue,vertical,space,249.09130339999683,None,space,1,0.25217769999289885,None,,,,0,1,1,1,0,35,35,35,746.729263599962,,,,,,,,,,,,,,,,746.7138590000104,746.729263599962,747.4286336000077,747.4286336000077,747.9283671999583,747.9124119000044,747.9132432999904,747.9283671999583,748.0448201999534,748.2281481999671,748.2281481999671,748.4960972999688,space,1,0.25217769999289885,None,748.5004871999845,749.0107022000011,750.009828099981,749.9941776999622,,,,,,,,,,,,,,,,,005,001,2025-04-27_22h52.11.370,Cued GoNogo Task,2024.2.4,60.00204007092619,2025-04-27 22h52.19.147494 +0200,
block/CondBlock2.xlsx,You are about to start a block of type 2 trials.,36,36,0,Go,Go,0.15,0.05,0.2,space,green,horizontal,space,249.09130339999683,None,space,1,0.36208549997536466,None,,,,0,1,1,1,0,36,36,36,750.009828099981,,,,,,,,,,,,,,,,749.9944876999944,750.009828099981,750.7094418999623,750.7094418999623,751.208983199962,751.1930537999724,751.1938537000096,751.208983199962,751.3589424999664,751.5588641999639,751.5588641999639,751.9276350999717,space,1,0.36208549997536466,None,751.9329326999723,752.4413163999561,753.4402760000085,753.4242404999677,,,,,,,,,,,,,,,,,005,001,2025-04-27_22h52.11.370,Cued GoNogo Task,2024.2.4,60.00204007092619,2025-04-27 22h52.19.147494 +0200,
block/CondBlock2.xlsx,You are about to start a block of type 2 trials.,37,37,0,Go,Go,0.15,0.2,0.05,space,green,vertical,space,249.09130339999683,None,space,1,0.3633180999895558,None,,,,0,1,1,1,0,37,37,37,753.4402760000085,,,,,,,,,,,,,,,,753.4244783999748,753.4402760000085,754.1398976999917,754.1398976999917,754.6395595999784,754.6232931999839,754.6238371999934,754.6395595999784,754.789360099996,754.9889874999644,754.9889874999644,755.3561688999762,space,1,0.3633180999895558,None,755.358803799958,755.8717775999685,756.8708576000063,756.8553605999914,,,,,,,,,,,,,,,,,005,001,2025-04-27_22h52.11.370,Cued GoNogo Task,2024.2.4,60.00204007092619,2025-04-27 22h52.19.147494 +0200,
block/CondBlock2.xlsx,You are about to start a block of type 2 trials.,38,38,0,NoGo,NoGo,0.14,0.2,0.05,none,green,vertical,space,249.09130339999683,None,space,0,0.22913359996164218,None,,,,0,1,1,1,0,38,38,38,756.8708576000063,,,,,,,,,,,,,,,,756.8556580999866,756.8708576000063,757.570426899998,757.570426899998,758.0699822999886,758.0541007999564,758.0548168999958,758.0699822999886,758.2197744000005,758.4031697000028,758.4031697000028,758.637596799992,space,0,0.22913359996164218,None,758.6442012999905,759.1523357999977,760.1515733999549,760.135378499981,,,,,,,,,,,,,,,,,005,001,2025-04-27_22h52.11.370,Cued GoNogo Task,2024.2.4,60.00204007092619,2025-04-27 22h52.19.147494 +0200,
block/CondBlock2.xlsx,You are about to start a block of type 2 trials.,39,39,0,Go,Go,0.46,0.2,0.05,space,green,vertical,space,249.09130339999683,None,space,1,0.3764678000006825,None,,,,0,1,1,1,0,39,39,39,760.1515733999549,,,,,,,,,,,,,,,,760.1356248999946,760.1515733999549,760.8508923999616,760.8508923999616,761.3505514999852,761.3344324000063,761.3349828000064,761.3505514999852,761.8168695999775,761.9999822999816,761.9999822999816,762.3840239999699,space,1,0.3764678000006825,None,762.3892943999963,762.8994249000098,763.8985170999658,763.8826385999564,,,,,,,,,,,,,,,,,005,001,2025-04-27_22h52.11.370,Cued GoNogo Task,2024.2.4,60.00204007092619,2025-04-27 22h52.19.147494 +0200,
block/CondBlock2.xlsx,You are about to start a block of type 2 trials.,40,40,0,Go,Go,0.5,0.05,0.2,space,blue,horizontal,space,249.09130339999683,None,space,1,0.3946301999967545,None,,,,0,1,1,1,0,40,40,40,763.8985170999658,,,,,,,,,,,,,,,,763.8829985999619,763.8985170999658,764.597906799987,764.597906799987,765.0974713999894,765.08164270001,765.0824123999919,765.0974713999894,765.5970245999633,765.7969151999569,765.7969151999569,766.197591300006,space,1,0.3946301999967545,None,766.2011164999567,766.7127896999591,767.711862600001,767.6963252999703,,,,,,,,,,,,,,,,,005,001,2025-04-27_22h52.11.370,Cued GoNogo Task,2024.2.4,60.00204007092619,2025-04-27 22h52.19.147494 +0200,
block/CondBlock2.xlsx,You are about to start a block of type 2 trials.,41,41,0,Go,Go,0.16,0.05,0.2,space,green,horizontal,space,249.09130339999683,None,space,1,0.26711890002479777,None,,,,0,1,1,1,0,41,41,41,767.711862600001,,,,,,,,,,,,,,,,767.6966358000063,767.711862600001,768.4113696999848,768.4113696999848,768.9109751000069,768.8953589999583,768.8961692999583,768.9109751000069,769.077510699979,769.2608921999927,769.2608921999927,769.5451582999667,space,1,0.26711890002479777,None,769.5492671999964,770.0601401999593,771.0593024999835,771.0439121999661,,,,,,,,,,,,,,,,,005,001,2025-04-27_22h52.11.370,Cued GoNogo Task,2024.2.4,60.00204007092619,2025-04-27 22h52.19.147494 +0200,
