Block,blockMsg,thisN,thisTrialN,thisRepN,CueType,StimType,CueTime,Stim_Height,Stim_Width,CRESP,Color,Orientation,key_resp_2.keys,key_resp_2.rt,key_resp_2.duration,Key_Resp.keys,Key_Resp.corr,Key_Resp.rt,Key_Resp.duration,key_resp_3.keys,key_resp_3.rt,key_resp_3.duration,Blocks.thisRepN,Blocks.thisTrialN,Blocks.thisN,Blocks.thisIndex,Trials.thisRepN,Trials.thisTrialN,Trials.thisN,Trials.thisIndex,thisRow.t,notes,TaskIntro.started,fixation.started,key_resp.started,TaskIntro.stopped,key_resp.keys,key_resp.rt,key_resp.duration,BlockStart.started,BlockStart_Msg.started,key_resp_2.started,BlockStart.stopped,Blocks.key_resp_2.keys,Blocks.key_resp_2.rt,Blocks.key_resp_2.duration,Fixation.started,FixationPhase.started,Blank.started,FixationPhase.stopped,Blank.stopped,Fixation.stopped,Trial.started,Cue.started,Cue.stopped,GoNogo_Stim.started,Key_Resp.started,Trial.stopped,Trials.Key_Resp.keys,Trials.Key_Resp.corr,Trials.Key_Resp.rt,Trials.Key_Resp.duration,Feedback.started,Feedback_Present.started,Feedback_Present.stopped,Feedback.stopped,GoNogo_Stim.stopped,Key_Resp.stopped,BlockEnd.started,BlockEnd_Msg.started,key_resp_3.started,BlockEnd.stopped,Blocks.key_resp_3.keys,Blocks.key_resp_3.rt,Blocks.key_resp_3.duration,TaskEnd.started,ThankYou.started,key_resp_4.started,TaskEnd.stopped,key_resp_4.keys,key_resp_4.rt,key_resp_4.duration,participant,session,date,expName,psychopyVersion,frameRate,expStart,
,,,,,,,,,,,,,,,,,,,,,,,,,,,,,,,,,0.0015774000203236938,0.0038530000019818544,0.0038530000019818544,24.55178550002165,space,24.54083230008837,None,,,,,,,,,,,,,,,,,,,,,,,,,,,,,,,,,,,,,,,,,,,,010,001,2025-05-02_22h03.19.559,Cued GoNogo Task,2024.2.4,60.01954233012083,2025-05-02 22h03.27.515659 +0200,
block/CondBlock1.xlsx,You are about to start a block of type 1 trials.,0,0,0,Go,Go,0.13,0.05,0.2,space,blue,horizontal,space,1.2357567000435665,None,space,1,0.29624410008545965,None,,,,0,0,0,0,0,0,0,0,25.8742730000522,,,,,,,,,24.561658000107855,24.5643812000053,24.5643812000053,25.813660600106232,space,1.2357567000435665,None,25.87097020004876,25.8742730000522,26.52836070000194,26.578305900096893,27.027762700105086,27.012321900110692,27.013326700078323,27.027762700105086,27.161130900029093,27.34418460004963,27.34418460004963,27.645623100106604,space,1,0.29624410008545965,None,27.656629600096494,28.160168300033547,29.159524000016972,29.14372670010198,,,,,,,,,,,,,,,,,010,001,2025-05-02_22h03.19.559,Cued GoNogo Task,2024.2.4,60.01954233012083,2025-05-02 22h03.27.515659 +0200,
block/CondBlock1.xlsx,You are about to start a block of type 1 trials.,1,1,0,NoGo,NoGo,0.43,0.05,0.2,none,blue,horizontal,space,1.2357567000435665,None,None,1,,,,,,0,0,0,0,0,1,1,1,29.159524000016972,,,,,,,,,,,,,,,,29.14406500000041,29.159524000016972,29.858762700110674,29.858762700110674,30.358295500045642,30.34243860002607,30.343055400066078,30.358295500045642,30.791377800051123,30.991378400009125,30.991378400009125,31.47486190008931,None,1,,,31.477254300029017,31.99028220004402,32.98957470001187,32.97348850010894,31.490771100041457,31.490771100041457,,,,,,,,,,,,,,,010,001,2025-05-02_22h03.19.559,Cued GoNogo Task,2024.2.4,60.01954233012083,2025-05-02 22h03.27.515659 +0200,
block/CondBlock1.xlsx,You are about to start a block of type 1 trials.,2,2,0,Go,Go,0.12,0.2,0.05,space,blue,vertical,space,1.2357567000435665,None,space,1,0.3031324000330642,None,,,,0,0,0,0,0,2,2,2,32.98957470001187,,,,,,,,,,,,,,,,32.973720900015905,32.98957470001187,33.68899789999705,33.68899789999705,34.18865370005369,34.172631000052206,34.17326100007631,34.18865370005369,34.32181620004121,34.505039900075644,34.505039900075644,34.822370500070974,space,1,0.3031324000330642,None,34.827258600038476,35.337855600053445,36.33686420007143,36.321494800038636,,,,,,,,,,,,,,,,,010,001,2025-05-02_22h03.19.559,Cued GoNogo Task,2024.2.4,60.01954233012083,2025-05-02 22h03.27.515659 +0200,
block/CondBlock1.xlsx,You are about to start a block of type 1 trials.,3,3,0,NoGo,NoGo,0.18,0.2,0.05,none,green,vertical,space,1.2357567000435665,None,None,1,,,,,,0,0,0,0,0,3,3,3,36.33686420007143,,,,,,,,,,,,,,,,36.32193490001373,36.33686420007143,37.03610230004415,37.03610230004415,37.53583280008752,37.51955960004125,37.52005900000222,37.53583280008752,37.71914749999996,37.90211910009384,37.90211910009384,38.38619710004423,None,1,,,38.39010420010891,38.90135990001727,39.900535300024785,39.88457120000385,38.40182760008611,38.40182760008611,,,,,,,,,,,,,,,010,001,2025-05-02_22h03.19.559,Cued GoNogo Task,2024.2.4,60.01954233012083,2025-05-02 22h03.27.515659 +0200,
block/CondBlock1.xlsx,You are about to start a block of type 1 trials.,4,4,0,Go,Go,0.24,0.05,0.2,space,green,horizontal,space,1.2357567000435665,None,space,1,0.41257300006691366,None,,,,0,0,0,0,0,4,4,4,39.900535300024785,,,,,,,,,,,,,,,,39.88484340009745,39.900535300024785,40.599996100063436,40.599996100063436,41.09968970005866,41.083330500056036,41.08382850000635,41.09968970005866,41.349269500002265,41.53247140010353,41.53247140010353,41.95001340005547,space,1,0.41257300006691366,None,41.955145700019784,42.46506290009711,43.46434100007173,43.4487683000043,,,,,,,,,,,,,,,,,010,001,2025-05-02_22h03.19.559,Cued GoNogo Task,2024.2.4,60.01954233012083,2025-05-02 22h03.27.515659 +0200,
block/CondBlock1.xlsx,You are about to start a block of type 1 trials.,5,5,0,Go,Go,0.21,0.05,0.2,space,blue,horizontal,space,1.2357567000435665,None,space,1,0.30512220005039126,None,,,,0,0,0,0,0,5,5,5,43.46434100007173,,,,,,,,,,,,,,,,43.44913630001247,43.46434100007173,44.16368780005723,44.16368780005723,44.66339850006625,44.647042000084184,44.64757470006589,44.66339850006625,44.879802600014955,45.06291160010733,45.06291160010733,45.38043000001926,space,1,0.30512220005039126,None,45.38546280004084,45.89568140008487,46.89470440009609,46.879179100040346,,,,,,,,,,,,,,,,,010,001,2025-05-02_22h03.19.559,Cued GoNogo Task,2024.2.4,60.01954233012083,2025-05-02 22h03.27.515659 +0200,
block/CondBlock1.xlsx,You are about to start a block of type 1 trials.,6,6,0,Go,Go,0.11,0.2,0.05,space,blue,vertical,space,1.2357567000435665,None,space,1,0.3175176000222564,None,,,,0,0,0,0,0,6,6,6,46.89470440009609,,,,,,,,,,,,,,,,46.87954900006298,46.89470440009609,47.59415140002966,47.59415140002966,48.093817300046794,48.07789050007705,48.07854410004802,48.093817300046794,48.21036310005002,48.3935740001034,48.3935740001034,48.72802430007141,space,1,0.3175176000222564,None,48.73288300004788,49.24293100007344,50.24202870007139,50.226304000010714,,,,,,,,,,,,,,,,,010,001,2025-05-02_22h03.19.559,Cued GoNogo Task,2024.2.4,60.01954233012083,2025-05-02 22h03.27.515659 +0200,
block/CondBlock1.xlsx,You are about to start a block of type 1 trials.,7,7,0,Go,Go,0.15,0.2,0.05,space,blue,vertical,space,1.2357567000435665,None,space,1,0.2898259999928996,None,,,,0,0,0,0,0,7,7,7,50.24202870007139,,,,,,,,,,,,,,,,50.22662309999578,50.24202870007139,50.94156610011123,50.94156610011123,51.44117650005501,51.425232500070706,51.42593460006174,51.44117650005501,51.590851000044495,51.79079430003185,51.79079430003185,52.092091700062156,space,1,0.2898259999928996,None,52.097415700089186,52.60668940003961,,53.60598500003107,,,,,,,,,,,,,,,,,010,001,2025-05-02_22h03.19.559,Cued GoNogo Task,2024.2.4,60.01954233012083,2025-05-02 22h03.27.515659 +0200,
block/CondBlock1.xlsx,You are about to start a block of type 1 trials.,8,8,0,NoGo,NoGo,0.3,0.05,0.2,none,blue,horizontal,space,1.2357567000435665,None,None,1,,,,,,0,0,0,0,0,8,8,8,53.622457200079225,,,,,,,,,,,,,,,,53.606207200093195,53.622457200079225,54.30547770007979,54.322045400040224,54.80482870002743,54.78917460003868,54.78981100011151,54.80482870002743,55.104701500036754,55.30436480010394,55.30436480010394,55.787959000095725,None,1,,,55.79010380001273,56.28720400005113,57.28636110003572,57.27016140008345,55.80410720000509,55.80410720000509,,,,,,,,,,,,,,,010,001,2025-05-02_22h03.19.559,Cued GoNogo Task,2024.2.4,60.01954233012083,2025-05-02 22h03.27.515659 +0200,
block/CondBlock1.xlsx,You are about to start a block of type 1 trials.,9,9,0,NoGo,NoGo,0.17,0.05,0.2,none,blue,horizontal,space,1.2357567000435665,None,None,1,,,,,,0,0,0,0,0,9,9,9,57.28636110003572,,,,,,,,,,,,,,,,57.27039560000412,57.30288970004767,58.00221840001177,58.00221840001177,58.501960700028576,58.486068900092505,58.4867615000112,58.501960700028576,58.68513440003153,58.86836270010099,58.86836270010099,59.35188260010909,None,1,,,59.35239240003284,59.867510400014,60.86658750008792,60.85070629999973,59.36775259999558,59.36775259999558,,,,,,,,,,,,,,,010,001,2025-05-02_22h03.19.559,Cued GoNogo Task,2024.2.4,60.01954233012083,2025-05-02 22h03.27.515659 +0200,
block/CondBlock1.xlsx,You are about to start a block of type 1 trials.,10,10,0,NoGo,NoGo,0.26,0.2,0.05,none,green,vertical,space,1.2357567000435665,None,None,1,,,,,,0,0,0,0,0,10,10,10,60.86658750008792,,,,,,,,,,,,,,,,60.851017000037245,60.86658750008792,61.5662029000232,61.5662029000232,62.065718300058506,62.04992040002253,62.05060110008344,62.065718300058506,62.3321050000377,62.515368600026704,62.515368600026704,62.99909610010218,None,1,,,62.99963050009683,63.51451150001958,64.51354380010162,64.49796020006761,63.01499779999722,63.01499779999722,,,,,,,,,,,,,,,010,001,2025-05-02_22h03.19.559,Cued GoNogo Task,2024.2.4,60.01954233012083,2025-05-02 22h03.27.515659 +0200,
block/CondBlock1.xlsx,You are about to start a block of type 1 trials.,11,11,0,Go,Go,0.27,0.05,0.2,space,green,horizontal,space,1.2357567000435665,None,space,1,0.3730273999972269,None,,,,0,0,0,0,0,11,11,11,64.51354380010162,,,,,,,,,,,,,,,,64.49822629999835,64.51354380010162,65.21298550011124,65.21298550011124,65.71266150008887,65.6965099000372,65.69716980005614,65.71266150008887,65.99580430006608,66.17899899999611,66.17899899999611,66.56341760000214,space,1,0.3730273999972269,None,66.5690018000314,67.07819240004756,68.07737520011142,68.06169600004796,,,,,,,,,,,,,,,,,010,001,2025-05-02_22h03.19.559,Cued GoNogo Task,2024.2.4,60.01954233012083,2025-05-02 22h03.27.515659 +0200,
block/CondBlock1.xlsx,You are about to start a block of type 1 trials.,12,12,0,Go,Go,0.16,0.2,0.05,space,green,vertical,space,1.2357567000435665,None,space,1,0.42165129992645234,None,,,,0,0,0,0,0,12,12,12,68.07737520011142,,,,,,,,,,,,,,,,68.0620506000705,68.07737520011142,68.77673300006427,68.77673300006427,69.27656310005113,69.26057690009475,69.26119240000844,69.27656310005113,69.44284440006595,69.62615380005445,69.62615380005445,70.06089160009287,space,1,0.42165129992645234,None,70.065108000068,70.57543800002895,71.57452860008925,71.55886350001674,,,,,,,,,,,,,,,,,010,001,2025-05-02_22h03.19.559,Cued GoNogo Task,2024.2.4,60.01954233012083,2025-05-02 22h03.27.515659 +0200,
block/CondBlock1.xlsx,You are about to start a block of type 1 trials.,13,13,0,Go,Go,0.13,0.2,0.05,space,green,vertical,space,1.2357567000435665,None,space,1,0.38968530006241053,None,,,,0,0,0,0,0,13,13,13,71.57452860008925,,,,,,,,,,,,,,,,71.55925700010266,71.57452860008925,72.27409660001285,72.27409660001285,72.77352540008724,72.75782320008148,72.75860140006989,72.77352540008724,72.90678060008213,73.08989350008778,73.08989350008778,73.4908737000078,space,1,0.38968530006241053,None,73.49536290008109,74.00597360008396,75.0049663000973,74.98912060004659,,,,,,,,,,,,,,,,,010,001,2025-05-02_22h03.19.559,Cued GoNogo Task,2024.2.4,60.01954233012083,2025-05-02 22h03.27.515659 +0200,
block/CondBlock1.xlsx,You are about to start a block of type 1 trials.,14,14,0,Go,Go,0.12,0.05,0.2,space,blue,horizontal,space,1.2357567000435665,None,space,1,0.3985706999665126,None,,,,0,0,0,0,0,14,14,14,75.0049663000973,,,,,,,,,,,,,,,,74.98938840010669,75.0049663000973,75.70455150003545,75.70455150003545,76.20411470008548,76.18819560005795,76.18889230000786,76.20411470008548,76.33717410010286,76.52089420007542,76.52089420007542,76.92195150000043,space,1,0.3985706999665126,None,76.92620010010432,77.43638660002034,78.43541970010847,78.41939090006053,,,,,,,,,,,,,,,,,010,001,2025-05-02_22h03.19.559,Cued GoNogo Task,2024.2.4,60.01954233012083,2025-05-02 22h03.27.515659 +0200,
block/CondBlock1.xlsx,You are about to start a block of type 1 trials.,15,15,0,Go,Go,0.45,0.2,0.05,space,blue,vertical,space,1.2357567000435665,None,space,1,0.3318890000227839,None,,,,0,0,0,0,0,15,15,15,78.43541970010847,,,,,,,,,,,,,,,,78.41965410008561,78.43541970010847,79.13490900001489,79.13490900001489,79.6345113000134,79.61878280004021,79.61976930010132,79.6345113000134,80.08412760007195,80.28410640009679,80.28410640009679,80.61918350006454,space,1,0.3318890000227839,None,80.62307860003784,81.1331804000074,82.1326014000224,82.11658930010162,,,,,,,,,,,,,,,,,010,001,2025-05-02_22h03.19.559,Cued GoNogo Task,2024.2.4,60.01954233012083,2025-05-02 22h03.27.515659 +0200,
block/CondBlock1.xlsx,You are about to start a block of type 1 trials.,16,16,0,NoGo,NoGo,0.14,0.2,0.05,none,green,vertical,space,1.2357567000435665,None,None,1,,,,,,0,0,0,0,0,16,16,16,82.1326014000224,,,,,,,,,,,,,,,,82.11693230003584,82.1326014000224,82.83216340001673,82.83216340001673,83.33153960003983,83.31564710009843,83.31638690002728,83.33153960003983,83.48151549999602,83.66450870002154,83.66450870002154,84.14814290008508,None,1,,,84.15035320003517,84.66361240006518,85.66269040002953,85.64711630006786,84.1641422000248,84.1641422000248,,,,,,,,,,,,,,,010,001,2025-05-02_22h03.19.559,Cued GoNogo Task,2024.2.4,60.01954233012083,2025-05-02 22h03.27.515659 +0200,
block/CondBlock1.xlsx,You are about to start a block of type 1 trials.,17,17,0,Go,Go,0.12,0.05,0.2,space,green,horizontal,space,1.2357567000435665,None,space,1,0.37353029998485,None,,,,0,0,0,0,0,17,17,17,85.66269040002953,,,,,,,,,,,,,,,,85.64738740003668,85.66269040002953,86.36236630007625,86.36236630007625,86.86184840009082,86.84591900010128,86.84657650010195,86.86184840009082,86.99497900006827,87.17843050009105,87.17843050009105,87.56323369999882,space,1,0.37353029998485,None,87.56678490003105,88.07765630003996,89.07675500004552,89.06081120006274,,,,,,,,,,,,,,,,,010,001,2025-05-02_22h03.19.559,Cued GoNogo Task,2024.2.4,60.01954233012083,2025-05-02 22h03.27.515659 +0200,
block/CondBlock1.xlsx,You are about to start a block of type 1 trials.,18,18,0,Go,Go,0.47,0.2,0.05,space,blue,vertical,space,1.2357567000435665,None,space,1,0.44998730008956045,None,,,,0,0,0,0,0,18,18,18,89.07675500004552,,,,,,,,,,,,,,,,89.0610377000412,89.07675500004552,89.77624110004399,89.77624110004399,90.27571290009655,90.2595928000519,90.26010980003048,90.27571290009655,90.75869200006127,90.94187140010763,90.94187140010763,91.3944257000694,space,1,0.44998730008956045,None,91.39910870010499,91.90766170003917,92.90696000005119,92.89109170006122,,,,,,,,,,,,,,,,,010,001,2025-05-02_22h03.19.559,Cued GoNogo Task,2024.2.4,60.01954233012083,2025-05-02 22h03.27.515659 +0200,
block/CondBlock1.xlsx,You are about to start a block of type 1 trials.,19,19,0,Go,Go,0.18,0.2,0.05,space,green,vertical,space,1.2357567000435665,None,space,1,0.39102169999387115,None,,,,0,0,0,0,0,19,19,19,92.90696000005119,,,,,,,,,,,,,,,,92.89145070000086,92.90696000005119,93.60639130009804,93.60639130009804,94.10605790000409,94.090326000005,94.09150950005278,94.10605790000409,94.28903960005846,94.48906980000902,94.48906980000902,94.88930530007929,space,1,0.39102169999387115,None,94.89263160002884,95.38835200003814,96.3874246000778,96.37145510001574,,,,,,,,,,,,,,,,,010,001,2025-05-02_22h03.19.559,Cued GoNogo Task,2024.2.4,60.01954233012083,2025-05-02 22h03.27.515659 +0200,
block/CondBlock1.xlsx,You are about to start a block of type 1 trials.,20,20,0,Go,Go,0.19,0.2,0.05,space,blue,vertical,space,1.2357567000435665,None,space,1,0.3735146999824792,None,,,,0,0,0,0,0,20,20,20,96.3874246000778,,,,,,,,,,,,,,,,96.37177540000994,96.40408250002656,97.10340790008195,97.10340790008195,97.60311170003843,97.58770380006172,97.58861460001208,97.60311170003843,97.80283729999792,97.98612540005706,97.98612540005706,98.37077670008875,space,1,0.3735146999824792,None,98.37568000005558,98.8853426000569,99.8846099000657,99.86899830005132,,,,,,,,,,,,,,,,,010,001,2025-05-02_22h03.19.559,Cued GoNogo Task,2024.2.4,60.01954233012083,2025-05-02 22h03.27.515659 +0200,
block/CondBlock1.xlsx,You are about to start a block of type 1 trials.,21,21,0,Go,Go,0.14,0.2,0.05,space,blue,vertical,space,1.2357567000435665,None,space,1,0.3836485999636352,None,,,,0,0,0,0,0,21,21,21,99.8846099000657,,,,,,,,,,,,,,,,99.8693215000676,99.8846099000657,100.58393180009443,100.58393180009443,101.08345510007348,101.06765219999943,101.06827590009198,101.08345510007348,101.23326190002263,101.41645060002338,101.41645060002338,101.81747670006007,space,1,0.3836485999636352,None,101.82238480006345,102.33250950009096,103.33159090008121,103.31585170002654,,,,,,,,,,,,,,,,,010,001,2025-05-02_22h03.19.559,Cued GoNogo Task,2024.2.4,60.01954233012083,2025-05-02 22h03.27.515659 +0200,
block/CondBlock1.xlsx,You are about to start a block of type 1 trials.,22,22,0,Go,Go,0.15,0.2,0.05,space,blue,vertical,space,1.2357567000435665,None,space,1,0.43200590007472783,None,,,,0,0,0,0,0,22,22,22,103.33159090008121,,,,,,,,,,,,,,,,103.31624190008733,103.33159090008121,104.0310340001015,104.0310340001015,104.53081040002871,104.51506580004934,104.51571070007049,104.53081040002871,104.68050680006854,104.8803955001058,104.8803955001058,105.31529960001353,space,1,0.43200590007472783,None,105.31956750003155,105.82960660010576,106.82866380002815,106.81291580002289,,,,,,,,,,,,,,,,,010,001,2025-05-02_22h03.19.559,Cued GoNogo Task,2024.2.4,60.01954233012083,2025-05-02 22h03.27.515659 +0200,
block/CondBlock1.xlsx,You are about to start a block of type 1 trials.,23,23,0,Go,Go,0.23,0.05,0.2,space,green,horizontal,space,1.2357567000435665,None,space,1,0.3638139999238774,None,,,,0,0,0,0,0,23,23,23,106.82866380002815,,,,,,,,,,,,,,,,106.81318490009289,106.82866380002815,107.52817580010742,107.52817580010742,108.02788920002058,108.01183760003187,108.01238540001214,108.02788920002058,108.2608505000826,108.44431740010623,108.44431740010623,108.81191070005298,space,1,0.3638139999238774,None,108.81578390009236,109.3268130000215,110.32589560002089,110.31021620007232,,,,,,,,,,,,,,,,,010,001,2025-05-02_22h03.19.559,Cued GoNogo Task,2024.2.4,60.01954233012083,2025-05-02 22h03.27.515659 +0200,
block/CondBlock1.xlsx,You are about to start a block of type 1 trials.,24,24,0,Go,Go,0.2,0.2,0.05,space,blue,vertical,space,1.2357567000435665,None,space,1,0.33236220001708716,None,,,,0,0,0,0,0,24,24,24,110.32589560002089,,,,,,,,,,,,,,,,110.31055010005366,110.32589560002089,111.02537190006115,111.02537190006115,111.52493240009062,111.5090852000285,111.50978419999592,111.52493240009062,111.72465230000671,111.92467540001962,111.92467540001962,112.25985920010135,space,1,0.33236220001708716,None,112.26343720010482,112.77384790009819,113.77301820006687,113.75716680008918,,,,,,,,,,,,,,,,,010,001,2025-05-02_22h03.19.559,Cued GoNogo Task,2024.2.4,60.01954233012083,2025-05-02 22h03.27.515659 +0200,
block/CondBlock1.xlsx,You are about to start a block of type 1 trials.,25,25,0,Go,Go,0.15,0.2,0.05,space,blue,vertical,space,1.2357567000435665,None,space,1,0.3735957999015227,None,,,,0,0,0,0,0,25,25,25,113.77301820006687,,,,,,,,,,,,,,,,113.75738080008887,113.77301820006687,114.47257110010833,114.47257110010833,114.97233970009256,114.95606120000593,114.95669720007572,114.97233970009256,115.12207400007173,115.32193830003962,115.32193830003962,115.70577160001267,space,1,0.3735957999015227,None,115.71010190004017,116.22088560007978,117.22044480009936,117.20465470000636,,,,,,,,,,,,,,,,,010,001,2025-05-02_22h03.19.559,Cued GoNogo Task,2024.2.4,60.01954233012083,2025-05-02 22h03.27.515659 +0200,
block/CondBlock1.xlsx,You are about to start a block of type 1 trials.,26,26,0,NoGo,NoGo,0.2,0.2,0.05,none,blue,vertical,space,1.2357567000435665,None,None,1,,,,,,0,0,0,0,0,26,26,26,117.22044480009936,,,,,,,,,,,,,,,,117.20511890004855,117.22044480009936,117.91971320006996,117.91971320006996,118.41936890000943,118.4034515999956,118.40410600008909,118.41936890000943,118.61915260006208,118.81895560002886,118.81895560002886,119.3029846000718,None,1,,,119.30642620008439,119.81817090010736,120.81742630002555,120.80145520006772,119.31864240008872,119.31864240008872,,,,,,,,,,,,,,,010,001,2025-05-02_22h03.19.559,Cued GoNogo Task,2024.2.4,60.01954233012083,2025-05-02 22h03.27.515659 +0200,
block/CondBlock1.xlsx,You are about to start a block of type 1 trials.,27,27,0,Go,Go,0.29,0.05,0.2,space,green,horizontal,space,1.2357567000435665,None,space,1,0.33192190004047006,None,,,,0,0,0,0,0,27,27,27,120.81742630002555,,,,,,,,,,,,,,,,120.80179510009475,120.81742630002555,121.51669610000681,121.51669610000681,122.0165831000777,122.0002797000343,122.00079320010263,122.0165831000777,122.3161602000473,122.4993201000616,122.4993201000616,122.83428700000513,space,1,0.33192190004047006,None,122.838039400056,123.34858200000599,124.34793220006395,124.33197350008413,,,,,,,,,,,,,,,,,010,001,2025-05-02_22h03.19.559,Cued GoNogo Task,2024.2.4,60.01954233012083,2025-05-02 22h03.27.515659 +0200,
block/CondBlock1.xlsx,You are about to start a block of type 1 trials.,28,28,0,Go,Go,0.24,0.2,0.05,space,blue,vertical,space,1.2357567000435665,None,space,1,0.3812326999614015,None,,,,0,0,0,0,0,28,28,28,124.34793220006395,,,,,,,,,,,,,,,,124.33229190006386,124.34793220006395,125.04719520010985,125.04719520010985,125.54669370001648,125.53092710010242,125.53163740003947,125.54669370001648,125.79640890005976,125.97973790008109,125.97973790008109,126.36415999999736,space,1,0.3812326999614015,None,126.36788010003511,126.87890920008067,127.87820520007517,127.86237149999943,,,,,,,,,,,,,,,,,010,001,2025-05-02_22h03.19.559,Cued GoNogo Task,2024.2.4,60.01954233012083,2025-05-02 22h03.27.515659 +0200,
block/CondBlock1.xlsx,You are about to start a block of type 1 trials.,29,29,0,Go,Go,0.15,0.05,0.2,space,green,horizontal,space,1.2357567000435665,None,space,1,0.3572233999148011,None,,,,0,0,0,0,0,29,29,29,127.87820520007517,,,,,,,,,,,,,,,,127.86274840007536,127.87820520007517,128.57773990009446,128.57773990009446,129.07711070007645,129.0612651000265,129.06189160002396,129.07711070007645,129.22720900003333,129.42688970000017,129.42688970000017,129.79412020009477,space,1,0.3572233999148011,None,129.79710520000663,130.3095451000845,131.3085599000333,131.29282430000603,,,,,,,,,,,,,,,,,010,001,2025-05-02_22h03.19.559,Cued GoNogo Task,2024.2.4,60.01954233012083,2025-05-02 22h03.27.515659 +0200,
block/CondBlock1.xlsx,You are about to start a block of type 1 trials.,30,30,0,Go,Go,0.23,0.2,0.05,space,green,vertical,space,1.2357567000435665,None,space,1,0.40437730005942285,None,,,,0,0,0,0,0,30,30,30,131.3085599000333,,,,,,,,,,,,,,,,131.29312440007925,131.3085599000333,132.00830350001343,132.00830350001343,132.5077121000504,132.49183790001553,132.4927174000768,132.5077121000504,132.74102940002922,132.92398270010017,132.92398270010017,133.34120530006476,space,1,0.40437730005942285,None,133.3441456001019,133.85663530009333,134.85567150008865,134.83996440004557,,,,,,,,,,,,,,,,,010,001,2025-05-02_22h03.19.559,Cued GoNogo Task,2024.2.4,60.01954233012083,2025-05-02 22h03.27.515659 +0200,
block/CondBlock1.xlsx,You are about to start a block of type 1 trials.,31,31,0,Go,Go,0.28,0.2,0.05,space,green,vertical,space,1.2357567000435665,None,space,1,0.35153149999678135,None,,,,0,0,0,0,0,31,31,31,134.85567150008865,,,,,,,,,,,,,,,,134.84020560001954,134.85567150008865,135.55534300010186,135.55534300010186,136.0546764000319,136.0389782000566,136.03972320002504,136.0546764000319,136.33795800001826,136.52119090000633,136.52119090000633,136.88856200000737,space,1,0.35153149999678135,None,136.89179360005073,137.4036555000348,138.40273790003266,138.38688910007477,,,,,,,,,,,,,,,,,010,001,2025-05-02_22h03.19.559,Cued GoNogo Task,2024.2.4,60.01954233012083,2025-05-02 22h03.27.515659 +0200,
block/CondBlock1.xlsx,You are about to start a block of type 1 trials.,32,32,0,Go,Go,0.19,0.2,0.05,space,green,vertical,space,1.2357567000435665,None,space,1,0.3752053000498563,None,,,,0,0,0,0,0,32,32,32,138.40273790003266,,,,,,,,,,,,,,,,138.3871801000787,138.40273790003266,139.10215250006877,139.10215250006877,139.6018365001073,139.58572940004524,139.58616610011086,139.6018365001073,139.80175700003747,139.9849067000905,139.9849067000905,140.36931570002344,space,1,0.3752053000498563,None,140.37321060011163,140.8841199000599,141.88340670010075,141.86767940002028,,,,,,,,,,,,,,,,,010,001,2025-05-02_22h03.19.559,Cued GoNogo Task,2024.2.4,60.01954233012083,2025-05-02 22h03.27.515659 +0200,
block/CondBlock1.xlsx,You are about to start a block of type 1 trials.,33,33,0,Go,Go,0.12,0.2,0.05,space,green,vertical,space,1.2357567000435665,None,space,1,0.39350329991430044,None,,,,0,0,0,0,0,33,33,33,141.88340670010075,,,,,,,,,,,,,,,,141.86802829999942,141.88340670010075,142.58262470003683,142.58262470003683,143.08226779999677,143.06653220008593,143.0672003000509,143.08226779999677,143.21550620009657,143.39869480009656,143.39869480009656,143.7996064000763,space,1,0.39350329991430044,None,143.80334380001295,144.3146392001072,145.31400380004197,145.2977463999996,,,,,,,,,,,,,,,,,010,001,2025-05-02_22h03.19.559,Cued GoNogo Task,2024.2.4,60.01954233012083,2025-05-02 22h03.27.515659 +0200,
block/CondBlock1.xlsx,You are about to start a block of type 1 trials.,34,34,0,Go,Go,0.18,0.2,0.05,space,blue,vertical,space,1.2357567000435665,None,space,1,0.3937075000721961,None,,,,0,0,0,0,0,34,34,34,145.31400380004197,,,,,,,,,,,,,,,,145.29799520003144,145.31400380004197,146.01325320010073,146.01325320010073,146.51287650002632,146.49697279999964,146.49785140005406,146.51287650002632,146.69600340002216,146.8790721000405,146.8790721000405,147.27999900002033,space,1,0.3937075000721961,None,147.28039300011005,147.7952458000509,148.79428380005993,148.778586700093,,,,,,,,,,,,,,,,,010,001,2025-05-02_22h03.19.559,Cued GoNogo Task,2024.2.4,60.01954233012083,2025-05-02 22h03.27.515659 +0200,
block/CondBlock1.xlsx,You are about to start a block of type 1 trials.,35,35,0,Go,Go,0.21,0.2,0.05,space,blue,vertical,space,1.2357567000435665,None,space,1,0.3026476999511942,None,,,,0,0,0,0,0,35,35,35,148.79428380005993,,,,,,,,,,,,,,,,148.77898890001234,148.79428380005993,149.4937789000105,149.4937789000105,149.9934152000351,149.97723460011184,149.97783320001327,149.9934152000351,150.20971780002583,150.39313710003626,150.39313710003626,150.71088600007351,space,1,0.3026476999511942,None,150.71728260000236,151.22551800007932,152.2248935000971,152.20908030006103,,,,,,,,,,,,,,,,,010,001,2025-05-02_22h03.19.559,Cued GoNogo Task,2024.2.4,60.01954233012083,2025-05-02 22h03.27.515659 +0200,
block/CondBlock1.xlsx,You are about to start a block of type 1 trials.,36,36,0,Go,Go,0.2,0.2,0.05,space,green,vertical,space,1.2357567000435665,None,space,1,0.36808409995865077,None,,,,0,0,0,0,0,36,36,36,152.2248935000971,,,,,,,,,,,,,,,,152.20936870004516,152.2248935000971,152.92420060001314,152.92420060001314,153.42384280008264,153.40774250007235,153.4083571000956,153.42384280008264,153.62375780008733,153.8234579000855,153.8234579000855,154.20803300000262,space,1,0.36808409995865077,None,154.21323039999697,154.72286630002782,155.72213290003128,155.706199200009,,,,,,,,,,,,,,,,,010,001,2025-05-02_22h03.19.559,Cued GoNogo Task,2024.2.4,60.01954233012083,2025-05-02 22h03.27.515659 +0200,
block/CondBlock1.xlsx,You are about to start a block of type 1 trials.,37,37,0,Go,Go,0.45,0.05,0.2,space,blue,horizontal,space,1.2357567000435665,None,space,1,0.3818223999114707,None,,,,0,0,0,0,0,37,37,37,155.72213290003128,,,,,,,,,,,,,,,,155.7064905000152,155.72213290003128,156.4214973000344,156.4214973000344,156.92096850008238,156.90512030001264,156.90589630010072,156.92096850008238,157.37053890002426,157.57045150001068,157.57045150001068,157.95514120010193,space,1,0.3818223999114707,None,157.96045390004292,158.46963570010848,159.46890330000315,159.4530293000862,,,,,,,,,,,,,,,,,010,001,2025-05-02_22h03.19.559,Cued GoNogo Task,2024.2.4,60.01954233012083,2025-05-02 22h03.27.515659 +0200,
block/CondBlock1.xlsx,You are about to start a block of type 1 trials.,38,38,0,Go,Go,0.13,0.05,0.2,space,blue,horizontal,space,1.2357567000435665,None,space,1,0.31907890003640205,None,,,,0,0,0,0,0,38,38,38,159.46890330000315,,,,,,,,,,,,,,,,159.45329910004511,159.46890330000315,160.16842070000712,160.16842070000712,160.6679146999959,160.65185560006648,160.6525841000257,160.6679146999959,160.80101760011166,160.98419400001876,160.98419400001876,161.31841980002355,space,1,0.31907890003640205,None,161.32302520005032,161.83344760001637,162.83257440000307,162.8167791001033,,,,,,,,,,,,,,,,,010,001,2025-05-02_22h03.19.559,Cued GoNogo Task,2024.2.4,60.01954233012083,2025-05-02 22h03.27.515659 +0200,
block/CondBlock1.xlsx,You are about to start a block of type 1 trials.,39,39,0,Go,Go,0.46,0.2,0.05,space,blue,vertical,space,1.2357567000435665,None,space,1,0.36672859999816865,None,,,,0,0,0,0,0,39,39,39,162.83257440000307,,,,,,,,,,,,,,,,162.8172753000399,162.83257440000307,163.53214490006212,163.53214490006212,164.0318350000307,164.0160555000184,164.0168532000389,164.0318350000307,164.49815880006645,164.68104130006395,164.68104130006395,165.0505003000144,space,1,0.36672859999816865,None,165.05560490000062,165.5637890000362,166.56298640009481,166.54743510007393,,,,,,,,,,,,,,,,,010,001,2025-05-02_22h03.19.559,Cued GoNogo Task,2024.2.4,60.01954233012083,2025-05-02 22h03.27.515659 +0200,
block/CondBlock1.xlsx,You are about to start a block of type 1 trials.,40,40,0,Go,Go,0.29,0.2,0.05,space,blue,vertical,space,1.2357567000435665,None,space,1,0.3868019999936223,None,,,,0,0,0,0,0,40,40,40,166.56298640009481,,,,,,,,,,,,,,,,166.5478077000007,166.56298640009481,167.2623899000464,167.2623899000464,167.76195660000667,167.74616500001866,167.7469103001058,167.76195660000667,168.0618100001011,168.24492570001166,168.24492570001166,168.64585150009952,space,1,0.3868019999936223,None,168.64960830006748,169.16077710001264,170.15998200001195,170.14405070000794,,,,,,,,,,,,,,,,,010,001,2025-05-02_22h03.19.559,Cued GoNogo Task,2024.2.4,60.01954233012083,2025-05-02 22h03.27.515659 +0200,
block/CondBlock1.xlsx,You are about to start a block of type 1 trials.,41,41,0,Go,Go,0.22,0.2,0.05,space,blue,vertical,space,1.2357567000435665,None,space,1,0.36071180005092174,None,,,,0,0,0,0,0,41,41,41,170.15998200001195,,,,,,,,,,,,,,,,170.144318100065,170.15998200001195,170.8596301000798,170.8596301000798,171.35925590002444,171.34330780000892,171.3441433000844,171.35925590002444,171.59219620004296,171.77534180006478,171.77534180006478,172.14277120004408,space,1,0.36071180005092174,None,172.14576260000467,172.65796400001273,173.65729900007136,173.6409800000256,,,,,,,,,,,,,,,,,010,001,2025-05-02_22h03.19.559,Cued GoNogo Task,2024.2.4,60.01954233012083,2025-05-02 22h03.27.515659 +0200,
block/CondBlock1.xlsx,You are about to start a block of type 1 trials.,42,42,0,Go,Go,0.49,0.2,0.05,space,blue,vertical,space,1.2357567000435665,None,space,1,0.3334551000734791,None,,,,0,0,0,0,0,42,42,42,173.65729900007136,,,,,,,,,,,,,,,,173.64118810009677,173.65729900007136,174.35649960010778,174.35649960010778,174.85630100010894,174.84075210010633,174.84170510002878,174.85630100010894,175.35585230006836,175.53899670008104,175.53899670008104,175.87470670009498,space,1,0.3334551000734791,None,175.87894350010902,176.38846010004636,177.38731390004978,177.37192320008762,,,,,,,,,,,,,,,,,010,001,2025-05-02_22h03.19.559,Cued GoNogo Task,2024.2.4,60.01954233012083,2025-05-02 22h03.27.515659 +0200,
block/CondBlock1.xlsx,You are about to start a block of type 1 trials.,43,43,0,Go,Go,0.2,0.2,0.05,space,blue,vertical,space,1.2357567000435665,None,space,1,0.3251484000356868,None,,,,0,0,0,0,0,43,43,43,177.38731390004978,,,,,,,,,,,,,,,,177.37220440001693,177.38731390004978,178.087008100003,178.087008100003,178.58650520001538,178.57048080000095,178.57114840007853,178.58650520001538,178.78636640007608,178.98614839999937,178.98614839999937,179.3201839000685,space,1,0.3251484000356868,None,179.32387070008554,179.8354798000073,180.83458580006845,180.81853990000673,,,,,,,,,,,,,,,,,010,001,2025-05-02_22h03.19.559,Cued GoNogo Task,2024.2.4,60.01954233012083,2025-05-02 22h03.27.515659 +0200,
block/CondBlock1.xlsx,You are about to start a block of type 1 trials.,44,44,0,Go,Go,0.3,0.05,0.2,space,blue,horizontal,space,1.2357567000435665,None,space,1,0.29187549999915063,None,,,,0,0,0,0,0,44,44,44,180.83458580006845,,,,,,,,,,,,,,,,180.8187498000916,180.83458580006845,181.53410460008308,181.53410460008308,182.0335943000391,182.01752810005564,182.01798970007803,182.0335943000391,182.33340470003895,182.53330670006108,182.53330670006108,182.83417929999996,space,1,0.29187549999915063,None,182.83792010007892,183.34932940010913,184.34831850009505,184.33247830008622,,,,,,,,,,,,,,,,,010,001,2025-05-02_22h03.19.559,Cued GoNogo Task,2024.2.4,60.01954233012083,2025-05-02 22h03.27.515659 +0200,
block/CondBlock1.xlsx,You are about to start a block of type 1 trials.,45,45,0,NoGo,NoGo,0.21,0.05,0.2,none,green,horizontal,space,1.2357567000435665,None,None,1,,,,,,0,0,0,0,0,45,45,45,184.34831850009505,,,,,,,,,,,,,,,,184.33280450000893,184.34831850009505,185.04774310009088,185.04774310009088,185.5473896000767,185.5316076000454,185.53228300006595,185.5473896000767,185.76396820007358,185.94700290006585,185.94700290006585,186.43108910007868,None,1,,,186.43343020009343,186.94601559999865,187.94525109999813,187.92976920004003,186.44671859999653,186.44671859999653,,,,,,,,,,,,,,,010,001,2025-05-02_22h03.19.559,Cued GoNogo Task,2024.2.4,60.01954233012083,2025-05-02 22h03.27.515659 +0200,
block/CondBlock1.xlsx,You are about to start a block of type 1 trials.,46,46,0,NoGo,NoGo,0.45,0.05,0.2,none,blue,horizontal,space,1.2357567000435665,None,None,1,,,,,,0,0,0,0,0,46,46,46,187.94525109999813,,,,,,,,,,,,,,,,187.93009080004413,187.94525109999813,188.6447815001011,188.6447815001011,189.1443947000662,189.12853510002606,189.12921850010753,189.1443947000662,189.59422280010767,189.79389290011022,189.79389290011022,190.27736310008913,None,1,,,190.2776858001016,190.77651730005164,191.7756486000726,191.75988630007487,190.29365600005258,190.29365600005258,,,,,,,,,,,,,,,010,001,2025-05-02_22h03.19.559,Cued GoNogo Task,2024.2.4,60.01954233012083,2025-05-02 22h03.27.515659 +0200,
block/CondBlock1.xlsx,You are about to start a block of type 1 trials.,47,47,0,Go,Go,0.24,0.05,0.2,space,green,horizontal,space,1.2357567000435665,None,space,1,0.37643159995786846,None,,,,0,0,0,0,0,47,47,47,191.7756486000726,,,,,,,,,,,,,,,,191.76018460001796,191.79226260003634,192.4917976000579,192.4917976000579,192.99118950008415,192.9751791000599,192.97572610003408,192.99118950008415,193.2411089000525,193.42413620010484,193.42413620010484,193.80826810002327,space,1,0.37643159995786846,None,193.81188550009392,194.32350400008727,195.32262000010815,195.30658790003508,,,,,,,,,,,,,,,,,010,001,2025-05-02_22h03.19.559,Cued GoNogo Task,2024.2.4,60.01954233012083,2025-05-02 22h03.27.515659 +0200,
block/CondBlock1.xlsx,You are about to start a block of type 1 trials.,48,48,0,NoGo,NoGo,0.15,0.2,0.05,none,blue,vertical,space,1.2357567000435665,None,None,1,,,,,,0,0,0,0,0,48,48,48,195.32262000010815,,,,,,,,,,,,,,,,195.3067809001077,195.32262000010815,196.0223030000925,196.0223030000925,196.52160630002618,196.50609490007628,196.5070273000747,196.52160630002618,196.67153710010462,196.8714772000676,196.8714772000676,197.35491630004253,None,1,,,197.35771870007738,197.8706454000203,198.8697761000367,198.85393620003015,197.3710508000804,197.3710508000804,,,,,,,,,,,,,,,010,001,2025-05-02_22h03.19.559,Cued GoNogo Task,2024.2.4,60.01954233012083,2025-05-02 22h03.27.515659 +0200,
block/CondBlock1.xlsx,You are about to start a block of type 1 trials.,49,49,0,Go,Go,0.12,0.05,0.2,space,blue,horizontal,space,1.2357567000435665,None,space,1,0.36658899998292327,None,,,,0,0,0,0,0,49,49,49,198.8697761000367,,,,,,,,,,,,,,,,198.85430000000633,198.8697761000367,199.56926140002906,199.56926140002906,200.06887489999644,200.05301870009862,200.05362500005867,200.06887489999644,200.20216179999989,200.38526590005495,200.38526590005495,200.7539963000454,space,1,0.36658899998292327,None,200.75719820009544,201.26775610004552,202.26686860003974,202.25096030009445,,,,,,,,,,,,,,,,,010,001,2025-05-02_22h03.19.559,Cued GoNogo Task,2024.2.4,60.01954233012083,2025-05-02 22h03.27.515659 +0200,
block/CondBlock1.xlsx,You are about to start a block of type 1 trials.,50,50,0,Go,Go,0.22,0.2,0.05,space,green,vertical,space,1.2357567000435665,None,space,1,0.36643409996759146,None,,,,0,0,0,0,0,50,50,50,202.26686860003974,,,,,,,,,,,,,,,,202.2511868000729,202.26686860003974,202.96643560007215,202.96643560007215,203.46591390005779,203.45022360002622,203.45076710009016,203.46591390005779,203.69923780008685,203.882452400052,203.882452400052,204.25080280005932,space,1,0.36643409996759146,None,204.2511581000872,204.7648421000922,205.76454420003574,205.74833930004388,,,,,,,,,,,,,,,,,010,001,2025-05-02_22h03.19.559,Cued GoNogo Task,2024.2.4,60.01954233012083,2025-05-02 22h03.27.515659 +0200,
block/CondBlock1.xlsx,You are about to start a block of type 1 trials.,51,51,0,Go,Go,0.28,0.05,0.2,space,green,horizontal,space,1.2357567000435665,None,space,1,0.34579769999254495,None,,,,0,0,0,0,0,51,51,51,205.76454420003574,,,,,,,,,,,,,,,,205.7486743000336,205.76454420003574,206.46355250000488,206.46355250000488,206.9630226000445,206.94686160003766,206.9472315000603,206.9630226000445,207.24616430001333,207.44626660004724,207.44626660004724,207.79665260005277,space,1,0.34579769999254495,None,207.800049600075,208.3122591000283,,209.31143730005715,,,,,,,,,,,,,,,,,010,001,2025-05-02_22h03.19.559,Cued GoNogo Task,2024.2.4,60.01954233012083,2025-05-02 22h03.27.515659 +0200,
block/CondBlock1.xlsx,You are about to start a block of type 1 trials.,52,52,0,Go,Go,0.23,0.2,0.05,space,green,vertical,space,1.2357567000435665,None,space,1,0.337219399982132,None,,,,0,0,0,0,0,52,52,52,209.327750400058,,,,,,,,,,,,,,,,209.3117046999978,209.327750400058,210.01049780007452,210.0271976001095,210.51041119999718,210.494666100014,210.49566880008206,210.51041119999718,210.7436175000621,210.926445200108,210.926445200108,211.27722740010358,space,1,0.337219399982132,None,211.28117450000718,211.7923522000201,212.79158540000208,212.77596780005842,,,,,,,,,,,,,,,,,010,001,2025-05-02_22h03.19.559,Cued GoNogo Task,2024.2.4,60.01954233012083,2025-05-02 22h03.27.515659 +0200,
block/CondBlock1.xlsx,You are about to start a block of type 1 trials.,53,53,0,Go,Go,0.22,0.05,0.2,space,green,horizontal,space,1.2357567000435665,None,space,1,0.4333328000502661,None,,,,0,0,0,0,0,53,53,53,212.79158540000208,,,,,,,,,,,,,,,,212.77628190000542,212.79158540000208,213.49097480007913,213.49097480007913,213.99082950002048,213.975052600028,213.97568350005895,213.99082950002048,214.22394660010468,214.40711930010002,214.40711930010002,214.85751520004123,space,1,0.4333328000502661,None,214.86085820000153,215.3728019000264,216.37207390007097,216.3562646000646,,,,,,,,,,,,,,,,,010,001,2025-05-02_22h03.19.559,Cued GoNogo Task,2024.2.4,60.01954233012083,2025-05-02 22h03.27.515659 +0200,
block/CondBlock1.xlsx,You are about to start a block of type 1 trials.,54,54,0,NoGo,NoGo,0.14,0.05,0.2,none,green,horizontal,space,1.2357567000435665,None,None,1,,,,,,0,0,0,0,0,54,54,54,216.37207390007097,,,,,,,,,,,,,,,,216.35658890008926,216.37207390007097,217.07144940004218,217.07144940004218,217.57102680008393,217.55546870001126,217.55645260005258,217.57102680008393,217.7210674000671,217.9041776000522,217.9041776000522,218.3877816000022,None,1,,,218.38998640002683,218.90352700010408,219.902576600085,219.88654340000357,218.40377620002255,218.40377620002255,,,,,,,,,,,,,,,010,001,2025-05-02_22h03.19.559,Cued GoNogo Task,2024.2.4,60.01954233012083,2025-05-02 22h03.27.515659 +0200,
block/CondBlock1.xlsx,You are about to start a block of type 1 trials.,55,55,0,Go,Go,0.15,0.2,0.05,space,blue,vertical,space,1.2357567000435665,None,space,1,0.34051230002660304,None,,,,0,0,0,0,0,55,55,55,219.902576600085,,,,,,,,,,,,,,,,219.88685660006013,219.902576600085,220.60189270006958,220.60189270006958,221.10139040008653,221.08545020001475,221.08603440003935,221.10139040008653,221.25157340010628,221.4511667001061,221.4511667001061,221.80184990004636,space,1,0.34051230002660304,None,221.80485320009757,222.31710280000698,223.31631690007634,223.30039690004196,,,,,,,,,,,,,,,,,010,001,2025-05-02_22h03.19.559,Cued GoNogo Task,2024.2.4,60.01954233012083,2025-05-02 22h03.27.515659 +0200,
block/CondBlock1.xlsx,You are about to start a block of type 1 trials.,56,56,0,Go,Go,0.47,0.2,0.05,space,blue,vertical,space,1.2357567000435665,None,None,0,,,,,,0,0,0,0,0,56,56,56,223.31631690007634,,,,,,,,,,,,,,,,223.30066340009216,223.31631690007634,224.0156962000765,224.0156962000765,224.51541410002392,224.49966400000267,224.5006994000869,224.51541410002392,224.99841800006106,225.1813682001084,225.1813682001084,225.66525840002578,None,0,,,225.6718401000835,226.18039260001387,227.18038110004272,227.1641016000649,225.68098850001115,225.68098850001115,,,,,,,,,,,,,,,010,001,2025-05-02_22h03.19.559,Cued GoNogo Task,2024.2.4,60.01954233012083,2025-05-02 22h03.27.515659 +0200,
block/CondBlock1.xlsx,You are about to start a block of type 1 trials.,57,57,0,NoGo,NoGo,0.42,0.2,0.05,none,green,vertical,space,1.2357567000435665,None,None,1,,,,,,0,0,0,0,0,57,57,57,227.18038110004272,,,,,,,,,,,,,,,,227.1644682000624,227.18038110004272,227.87936590006575,227.8959116000915,228.3788434000453,228.36288120003883,228.36359670001548,228.3788434000453,228.81184150010813,228.99504629999865,228.99504629999865,229.47858070000075,None,1,,,229.48128960002214,229.99401780008338,230.9933065000223,230.9771703000879,229.49439250002615,229.49439250002615,,,,,,,,,,,,,,,010,001,2025-05-02_22h03.19.559,Cued GoNogo Task,2024.2.4,60.01954233012083,2025-05-02 22h03.27.515659 +0200,
block/CondBlock1.xlsx,You are about to start a block of type 1 trials.,58,58,0,Go,Go,0.22,0.05,0.2,space,green,horizontal,space,1.2357567000435665,None,space,1,0.3281909000361338,None,,,,0,0,0,0,0,58,58,58,230.9933065000223,,,,,,,,,,,,,,,,230.9773930000374,230.9933065000223,231.69280150008854,231.69280150008854,232.1926029000897,232.1762925001094,232.17679010005668,232.1926029000897,232.42552120005712,232.6086069000885,232.6086069000885,232.94274710002355,space,1,0.3281909000361338,None,232.945952600101,233.45789250009693,234.45718410005793,234.44140800007153,,,,,,,,,,,,,,,,,010,001,2025-05-02_22h03.19.559,Cued GoNogo Task,2024.2.4,60.01954233012083,2025-05-02 22h03.27.515659 +0200,
block/CondBlock1.xlsx,You are about to start a block of type 1 trials.,59,59,0,Go,Go,0.3,0.2,0.05,space,blue,vertical,space,1.2357567000435665,None,space,1,0.3479718999005854,None,,,,0,0,0,0,0,59,59,59,234.45718410005793,,,,,,,,,,,,,,,,234.44169470004272,234.45718410005793,235.1567276000278,235.1567276000278,235.65630520007107,235.64079650002532,235.6417241001036,235.65630520007107,235.95600330003072,236.15588460001163,236.15588460001163,236.50701890001073,space,1,0.3479718999005854,None,236.51121210004203,237.02188420004677,,238.02108660002705,,,,,,,,,,,,,,,,,010,001,2025-05-02_22h03.19.559,Cued GoNogo Task,2024.2.4,60.01954233012083,2025-05-02 22h03.27.515659 +0200,
block/CondBlock1.xlsx,You are about to start a block of type 1 trials.,60,60,0,NoGo,NoGo,0.24,0.2,0.05,none,blue,vertical,space,1.2357567000435665,None,None,1,,,,,,0,0,0,0,0,60,60,60,238.03732300002594,,,,,,,,,,,,,,,,238.0214417000534,238.03732300002594,238.72034310002346,238.73695760010742,239.22000319999643,239.20416670001578,239.2050432000542,239.22000319999643,239.46964920009486,239.6528509000782,239.6528509000782,240.13830860005692,None,1,,,240.13980170001741,240.65357570000924,241.65245230006985,241.6368417000631,240.15464730001986,240.15464730001986,,,,,,,,,,,,,,,010,001,2025-05-02_22h03.19.559,Cued GoNogo Task,2024.2.4,60.01954233012083,2025-05-02 22h03.27.515659 +0200,
block/CondBlock1.xlsx,You are about to start a block of type 1 trials.,61,61,0,NoGo,NoGo,0.1,0.2,0.05,none,green,vertical,space,1.2357567000435665,None,None,1,,,,,,0,0,0,0,0,61,61,61,241.65245230006985,,,,,,,,,,,,,,,,241.63705760007724,241.65245230006985,242.6786746000871,242.6786746000871,,242.85027440008707,242.85093090008013,242.86683569999877,242.96683690010104,243.20121800003108,243.20121800003108,243.69982930005062,None,1,,,243.70012550009415,244.1993598000845,245.19847070006654,245.18223590007983,243.71618390001822,243.71618390001822,,,,,,,,,,,,,,,010,001,2025-05-02_22h03.19.559,Cued GoNogo Task,2024.2.4,60.01954233012083,2025-05-02 22h03.27.515659 +0200,
block/CondBlock1.xlsx,You are about to start a block of type 1 trials.,62,62,0,Go,Go,0.45,0.05,0.2,space,blue,horizontal,space,1.2357567000435665,None,space,1,0.288979500066489,None,,,,0,0,0,0,0,62,62,62,245.19847070006654,,,,,,,,,,,,,,,,245.18241480004508,245.21516710007563,245.9144387000706,245.9144387000706,246.41396850009914,246.3982471000636,246.39899650006555,246.41396850009914,246.86378120002337,247.06360240001231,247.06360240001231,247.36459600005765,space,1,0.288979500066489,None,247.36877060006373,247.87956080003642,248.87876049999613,248.86286930006463,,,,,,,,,,,,,,,,,010,001,2025-05-02_22h03.19.559,Cued GoNogo Task,2024.2.4,60.01954233012083,2025-05-02 22h03.27.515659 +0200,
block/CondBlock1.xlsx,You are about to start a block of type 1 trials.,63,63,0,Go,Go,0.1,0.05,0.2,space,green,horizontal,space,1.2357567000435665,None,space,1,0.32697339996229857,None,,,,0,0,0,0,0,63,63,63,248.87876049999613,,,,,,,,,,,,,,,,248.86313980002888,248.87876049999613,249.5781920000445,249.5781920000445,250.07786459999625,250.0619872000534,250.0627339000348,250.07786459999625,250.1776627000654,250.37741930002812,250.37741930002812,250.71179600001778,space,1,0.32697339996229857,None,250.716952900053,251.22666000004392,252.22618990007322,252.2104397000512,,,,,,,,,,,,,,,,,010,001,2025-05-02_22h03.19.559,Cued GoNogo Task,2024.2.4,60.01954233012083,2025-05-02 22h03.27.515659 +0200,
block/CondBlock1.xlsx,You are about to start a block of type 1 trials.,64,64,0,Go,Go,0.19,0.05,0.2,space,blue,horizontal,space,1.2357567000435665,None,None,0,,,,,,0,0,0,0,0,64,64,64,252.22618990007322,,,,,,,,,,,,,,,,252.2107282000361,252.22618990007322,252.92540880001616,252.92540880001616,253.42479200009257,253.4087711001048,253.40926530002616,253.42479200009257,253.6249149000505,253.80785370001104,253.80785370001104,254.29112160007935,None,0,,,254.2930583000416,254.79055130004417,255.78952580003534,255.77374020009302,254.30726360005792,254.30726360005792,,,,,,,,,,,,,,,010,001,2025-05-02_22h03.19.559,Cued GoNogo Task,2024.2.4,60.01954233012083,2025-05-02 22h03.27.515659 +0200,
block/CondBlock1.xlsx,You are about to start a block of type 1 trials.,65,65,0,Go,Go,0.21,0.2,0.05,space,blue,vertical,space,1.2357567000435665,None,space,1,0.3156040000030771,None,,,,0,0,0,0,0,65,65,65,255.78952580003534,,,,,,,,,,,,,,,,255.77403020008933,255.80631630006246,256.5056993000908,256.5056993000908,257.00521940004546,256.9894794001011,256.9901519000996,257.00521940004546,257.22190450003836,257.4051662000129,257.4051662000129,257.72357540007215,space,1,0.3156040000030771,None,257.72800430003554,258.2378736000974,,259.2372657000087,,,,,,,,,,,,,,,,,010,001,2025-05-02_22h03.19.559,Cued GoNogo Task,2024.2.4,60.01954233012083,2025-05-02 22h03.27.515659 +0200,
block/CondBlock1.xlsx,You are about to start a block of type 1 trials.,66,66,0,Go,Go,0.18,0.05,0.2,space,blue,horizontal,space,1.2357567000435665,None,space,1,0.30049200006760657,None,,,,0,0,0,0,0,66,66,66,259.25337829999626,,,,,,,,,,,,,,,,259.23772430000827,259.25337829999626,259.93630540010054,259.9527688000817,260.435798700084,260.41989870008547,260.420675600064,260.435798700084,260.61898240004666,260.8187844000058,260.8187844000058,261.1362521999981,space,1,0.30049200006760657,None,261.1402072000783,261.65151360002346,262.6508364001056,262.6348293001065,,,,,,,,,,,,,,,,,010,001,2025-05-02_22h03.19.559,Cued GoNogo Task,2024.2.4,60.01954233012083,2025-05-02 22h03.27.515659 +0200,
block/CondBlock1.xlsx,You are about to start a block of type 1 trials.,67,67,0,Go,Go,0.29,0.2,0.05,space,green,vertical,space,1.2357567000435665,None,space,1,0.3239393000258133,None,,,,0,0,0,0,0,67,67,67,262.6508364001056,,,,,,,,,,,,,,,,262.63508790009655,262.6508364001056,263.35001600009855,263.35001600009855,263.84962170000654,263.8338302000193,263.8345746000996,263.84962170000654,264.14949189999606,264.332782600075,264.332782600075,264.66730840003584,space,1,0.3239393000258133,None,264.6714329000097,265.1820715001086,266.1812764001079,266.1652539001079,,,,,,,,,,,,,,,,,010,001,2025-05-02_22h03.19.559,Cued GoNogo Task,2024.2.4,60.01954233012083,2025-05-02 22h03.27.515659 +0200,
block/CondBlock1.xlsx,You are about to start a block of type 1 trials.,68,68,0,NoGo,NoGo,0.24,0.2,0.05,none,blue,vertical,space,1.2357567000435665,None,None,1,,,,,,0,0,0,0,0,68,68,68,266.1812764001079,,,,,,,,,,,,,,,,266.1655324000167,266.1812764001079,266.88050710002426,266.88050710002426,267.38004479999654,267.3639495000243,267.36445190000813,267.38004479999654,267.6300248000771,267.8130879000528,267.8130879000528,268.29675330000464,None,1,,,268.2991753000533,268.81224630004726,269.81122640008107,269.7955142999999,268.31255530007184,268.31255530007184,,,,,,,,,,,,,,,010,001,2025-05-02_22h03.19.559,Cued GoNogo Task,2024.2.4,60.01954233012083,2025-05-02 22h03.27.515659 +0200,
block/CondBlock1.xlsx,You are about to start a block of type 1 trials.,69,69,0,Go,Go,0.27,0.05,0.2,space,green,horizontal,space,1.2357567000435665,None,space,1,0.37961469998117536,None,,,,0,0,0,0,0,69,69,69,269.81122640008107,,,,,,,,,,,,,,,,269.7956812001066,269.81122640008107,270.5106702001067,270.5106702001067,271.0101631000871,270.99406270007603,270.9945028000511,271.0101631000871,271.2936559000518,271.4768815001007,271.4768815001007,271.86073630000465,space,1,0.37961469998117536,None,271.8646945001092,272.375989900087,273.3752274001017,273.359236300108,,,,,,,,,,,,,,,,,010,001,2025-05-02_22h03.19.559,Cued GoNogo Task,2024.2.4,60.01954233012083,2025-05-02 22h03.27.515659 +0200,
block/CondBlock1.xlsx,You are about to start a block of type 1 trials.,70,70,0,Go,Go,0.25,0.2,0.05,space,green,vertical,space,1.2357567000435665,None,space,1,0.32875730004161596,None,,,,0,0,0,0,0,70,70,70,273.3752274001017,,,,,,,,,,,,,,,,273.3595188000472,273.3752274001017,274.07450109999627,274.07450109999627,274.5741160000907,274.5583024000516,274.55898950004485,274.5741160000907,274.82387170009315,275.0238036001101,275.0238036001101,275.35812760004774,space,1,0.32875730004161596,None,275.36240640003234,275.8730769000249,276.87217480002437,276.8565331000136,,,,,,,,,,,,,,,,,010,001,2025-05-02_22h03.19.559,Cued GoNogo Task,2024.2.4,60.01954233012083,2025-05-02 22h03.27.515659 +0200,
block/CondBlock1.xlsx,You are about to start a block of type 1 trials.,71,71,0,Go,Go,0.28,0.05,0.2,space,green,horizontal,space,1.2357567000435665,None,space,1,0.3902265999931842,None,,,,0,0,0,0,0,71,71,71,276.87217480002437,,,,,,,,,,,,,,,,276.85679670004174,276.87217480002437,277.57171910000034,277.57171910000034,278.07135040010326,278.0552119000349,278.0557147000218,278.07135040010326,278.3544804000994,278.5375488999998,278.5375488999998,278.9379971000599,space,1,0.3902265999931842,None,278.94115530001,279.45338210009504,280.45264390006196,280.437133600004,,,,,,,,,,,,,,,,,010,001,2025-05-02_22h03.19.559,Cued GoNogo Task,2024.2.4,60.01954233012083,2025-05-02 22h03.27.515659 +0200,
block/CondBlock1.xlsx,You are about to start a block of type 1 trials.,72,72,0,Go,Go,0.14,0.05,0.2,space,blue,horizontal,space,1.2357567000435665,None,space,1,0.3105566999875009,None,,,,0,0,0,0,0,72,72,72,280.45264390006196,,,,,,,,,,,,,,,,280.4374012000626,280.45264390006196,281.1519006000599,281.1519006000599,281.65153590007685,281.6359085000586,281.63665840006433,281.65153590007685,281.8013590000337,281.9847422000021,281.9847422000021,282.3025256000692,space,1,0.3105566999875009,None,282.30520980001893,282.8175340000307,283.8165481000906,283.8006793000968,,,,,,,,,,,,,,,,,010,001,2025-05-02_22h03.19.559,Cued GoNogo Task,2024.2.4,60.01954233012083,2025-05-02 22h03.27.515659 +0200,
block/CondBlock1.xlsx,You are about to start a block of type 1 trials.,73,73,0,Go,Go,0.11,0.05,0.2,space,blue,horizontal,space,1.2357567000435665,None,space,1,0.2933219999540597,None,,,,0,0,0,0,0,73,73,73,283.8165481000906,,,,,,,,,,,,,,,,283.8009629000444,283.8165481000906,284.5159275000915,284.5159275000915,285.0157743000891,284.9997035000706,285.0002738001058,285.0157743000891,285.1321983000962,285.3153056000592,285.3153056000592,285.61601640004665,space,1,0.2933219999540597,None,285.62030710000545,286.13127970008645,287.1307259000605,287.115065400023,,,,,,,,,,,,,,,,,010,001,2025-05-02_22h03.19.559,Cued GoNogo Task,2024.2.4,60.01954233012083,2025-05-02 22h03.27.515659 +0200,
block/CondBlock1.xlsx,You are about to start a block of type 1 trials.,74,74,0,Go,Go,0.22,0.2,0.05,space,blue,vertical,space,1.2357567000435665,None,space,1,0.37462240003515035,None,,,,0,0,0,0,0,74,74,74,287.1307259000605,,,,,,,,,,,,,,,,287.1155325000873,287.1307259000605,287.82986530009657,287.82986530009657,288.32953730004374,288.3134263000684,288.31406050000805,288.32953730004374,288.5627984000603,288.7458333000541,288.7458333000541,289.1300358000444,space,1,0.37462240003515035,None,289.13339920004364,289.64512720005587,290.6442953000078,290.62835770007223,,,,,,,,,,,,,,,,,010,001,2025-05-02_22h03.19.559,Cued GoNogo Task,2024.2.4,60.01954233012083,2025-05-02 22h03.27.515659 +0200,
block/CondBlock1.xlsx,You are about to start a block of type 1 trials.,75,75,0,Go,Go,0.26,0.05,0.2,space,blue,horizontal,space,1.2357567000435665,None,space,1,0.30732999998144805,None,,,,0,0,0,0,0,75,75,75,290.6442953000078,,,,,,,,,,,,,,,,290.6286136000417,290.6442953000078,291.343795599998,291.343795599998,291.84326970006805,291.8274458000669,291.82794690004084,291.84326970006805,292.10973480006214,292.2929255000781,292.2929255000781,292.61080930009484,space,1,0.30732999998144805,None,292.6152437001001,293.1256696000928,294.12478490010835,294.10890320001636,,,,,,,,,,,,,,,,,010,001,2025-05-02_22h03.19.559,Cued GoNogo Task,2024.2.4,60.01954233012083,2025-05-02 22h03.27.515659 +0200,
block/CondBlock1.xlsx,You are about to start a block of type 1 trials.,76,76,0,Go,Go,0.14,0.2,0.05,space,green,vertical,space,1.2357567000435665,None,space,1,0.29521860007662326,None,,,,0,0,0,0,0,76,76,76,294.12478490010835,,,,,,,,,,,,,,,,294.1092159000691,294.12478490010835,294.8241005000891,294.8241005000891,295.3238801000407,295.30791860003956,295.30862620007247,295.3238801000407,295.47361370001454,295.65694690006785,295.65694690006785,295.95758870011196,space,1,0.29521860007662326,None,295.96089910005685,296.4727243001107,297.4720302000642,297.4559299000539,,,,,,,,,,,,,,,,,010,001,2025-05-02_22h03.19.559,Cued GoNogo Task,2024.2.4,60.01954233012083,2025-05-02 22h03.27.515659 +0200,
block/CondBlock1.xlsx,You are about to start a block of type 1 trials.,77,77,0,Go,Go,0.18,0.05,0.2,space,green,horizontal,space,1.2357567000435665,None,space,1,0.34628510009497404,None,,,,0,0,0,0,0,77,77,77,297.4720302000642,,,,,,,,,,,,,,,,297.4561656001024,297.4720302000642,298.17137790005654,298.17137790005654,298.67098570009694,298.6553390000481,298.6560306000756,298.67098570009694,298.8542851000093,299.03716520010494,299.03716520010494,299.3882602000376,space,1,0.34628510009497404,None,299.3917132000206,299.90338740008883,300.90260190004483,300.8865783000365,,,,,,,,,,,,,,,,,010,001,2025-05-02_22h03.19.559,Cued GoNogo Task,2024.2.4,60.01954233012083,2025-05-02 22h03.27.515659 +0200,
block/CondBlock1.xlsx,You are about to start a block of type 1 trials.,78,78,0,NoGo,NoGo,0.27,0.05,0.2,none,blue,horizontal,space,1.2357567000435665,None,space,0,0.30350390006788075,None,,,,0,0,0,0,0,78,78,78,300.90260190004483,,,,,,,,,,,,,,,,300.8868205000181,300.90260190004483,301.60192770010326,301.60192770010326,302.10163120005745,302.08533590007573,302.0858138001058,302.10163120005745,302.3846494000172,302.5678885000525,302.5678885000525,302.8853005000856,space,0,0.30350390006788075,None,302.89452800003346,303.40044850006234,304.3996776000131,304.3838694000151,,,,,,,,,,,,,,,,,010,001,2025-05-02_22h03.19.559,Cued GoNogo Task,2024.2.4,60.01954233012083,2025-05-02 22h03.27.515659 +0200,
block/CondBlock1.xlsx,You are about to start a block of type 1 trials.,79,79,0,NoGo,NoGo,0.26,0.2,0.05,none,blue,vertical,space,1.2357567000435665,None,None,1,,,,,,0,0,0,0,0,79,79,79,304.3996776000131,,,,,,,,,,,,,,,,304.3841463000281,304.3996776000131,305.0991435000906,305.0991435000906,305.5986596000148,305.5831130000297,305.58395010000095,305.5986596000148,305.86502470006235,306.0483743000077,306.0483743000077,306.53198590001557,None,1,,,306.5344531000592,307.0472623000387,308.0467244000174,308.0310159000801,306.5478484000778,306.5478484000778,,,,,,,,,,,,,,,010,001,2025-05-02_22h03.19.559,Cued GoNogo Task,2024.2.4,60.01954233012083,2025-05-02 22h03.27.515659 +0200,
block/CondBlock1.xlsx,You are about to start a block of type 1 trials.,80,80,0,Go,Go,0.22,0.2,0.05,space,green,vertical,space,1.2357567000435665,None,None,0,,,,,,0,0,0,0,0,80,80,80,308.0467244000174,,,,,,,,,,,,,,,,308.0313646000577,308.0467244000174,308.74630450003315,308.74630450003315,309.24580490007065,309.22983920003753,309.23059230006766,309.24580490007065,309.4788478000555,309.66208290006034,309.66208290006034,310.14576780004427,None,0,,,310.14846090006176,310.6611971000675,311.6619009000715,311.64624860009644,310.16161490010563,310.16161490010563,,,,,,,,,,,,,,,010,001,2025-05-02_22h03.19.559,Cued GoNogo Task,2024.2.4,60.01954233012083,2025-05-02 22h03.27.515659 +0200,
block/CondBlock1.xlsx,You are about to start a block of type 1 trials.,81,81,0,Go,Go,0.5,0.2,0.05,space,green,vertical,space,1.2357567000435665,None,None,0,,,,,,0,0,0,0,0,81,81,81,311.6619009000715,,,,,,,,,,,,,,,,311.6466080000391,311.6619009000715,312.3611835000338,312.3611835000338,312.8608317000326,312.84477080008946,312.84524010005407,312.8608317000326,313.36041290010326,313.5599205000326,313.5599205000326,314.05882000003476,None,0,,,314.05918740003835,314.5699431000976,315.57363780005835,315.55806690000463,314.0916971000843,314.0916971000843,,,,,,,,,,,,,,,010,001,2025-05-02_22h03.19.559,Cued GoNogo Task,2024.2.4,60.01954233012083,2025-05-02 22h03.27.515659 +0200,
block/CondBlock1.xlsx,You are about to start a block of type 1 trials.,82,82,0,Go,Go,0.43,0.05,0.2,space,green,horizontal,space,1.2357567000435665,None,space,1,0.3140714999753982,None,,,,0,0,0,0,0,82,82,82,315.57363780005835,,,,,,,,,,,,,,,,315.5583793000551,315.57363780005835,316.27301950007677,316.27301950007677,316.77291400008835,316.7566319000907,316.7572281000903,316.77291400008835,317.2060135001084,317.38910700008273,317.38910700008273,317.7061821001116,space,1,0.3140714999753982,None,317.70908020006027,318.2216953000752,319.2206698000664,319.2048590000486,,,,,,,,,,,,,,,,,010,001,2025-05-02_22h03.19.559,Cued GoNogo Task,2024.2.4,60.01954233012083,2025-05-02 22h03.27.515659 +0200,
block/CondBlock1.xlsx,You are about to start a block of type 1 trials.,83,83,0,Go,Go,0.25,0.2,0.05,space,green,vertical,space,1.2357567000435665,None,space,1,0.346839000005275,None,,,,0,0,0,0,0,83,83,83,319.2206698000664,,,,,,,,,,,,,,,,319.20518100005575,319.2206698000664,319.9202845999971,319.9202845999971,320.419626200106,320.40420150000136,320.4053070000373,320.419626200106,320.66957610007375,320.8694630000973,320.8694630000973,321.2208953000372,space,1,0.346839000005275,None,321.2253964000847,321.73548720008694,322.7346423000563,322.7188665000722,,,,,,,,,,,,,,,,,010,001,2025-05-02_22h03.19.559,Cued GoNogo Task,2024.2.4,60.01954233012083,2025-05-02 22h03.27.515659 +0200,
block/CondBlock1.xlsx,You are about to start a block of type 1 trials.,84,84,0,NoGo,NoGo,0.14,0.2,0.05,none,green,vertical,space,1.2357567000435665,None,None,1,,,,,,0,0,0,0,0,84,84,84,322.7346423000563,,,,,,,,,,,,,,,,322.71920010005124,322.7346423000563,323.4340240000747,323.4340240000747,323.93361950002145,323.9177551000612,323.9185807000613,323.93361950002145,324.08368780009914,324.26681010005996,324.26681010005996,324.7501392000122,None,1,,,324.75239960011095,325.2655575000681,326.26484770001844,326.2489177000243,324.766077300068,324.766077300068,,,,,,,,,,,,,,,010,001,2025-05-02_22h03.19.559,Cued GoNogo Task,2024.2.4,60.01954233012083,2025-05-02 22h03.27.515659 +0200,
block/CondBlock1.xlsx,You are about to start a block of type 1 trials.,85,85,0,Go,Go,0.2,0.05,0.2,space,blue,horizontal,space,1.2357567000435665,None,space,1,0.3836599999340251,None,,,,0,0,0,0,0,85,85,85,326.26484770001844,,,,,,,,,,,,,,,,326.24920479999855,326.26484770001844,326.964293200057,326.964293200057,327.46393240010366,327.4482473001117,327.4490651000524,327.46393240010366,327.66384450008627,327.8637591000879,327.8637591000879,328.26424920000136,space,1,0.3836599999340251,None,328.2675523000071,328.77962590008974,329.7787450000178,329.7627778000897,,,,,,,,,,,,,,,,,010,001,2025-05-02_22h03.19.559,Cued GoNogo Task,2024.2.4,60.01954233012083,2025-05-02 22h03.27.515659 +0200,
block/CondBlock1.xlsx,You are about to start a block of type 1 trials.,86,86,0,Go,Go,0.16,0.2,0.05,space,blue,vertical,space,1.2357567000435665,None,space,1,0.36210919998120517,None,,,,0,0,0,0,0,86,86,86,329.7787450000178,,,,,,,,,,,,,,,,329.76302160008345,329.7787450000178,330.47819310007617,330.47819310007617,330.97760560002644,330.9623188000405,330.96305330004543,330.97760560002644,331.1442173999967,331.3276280000573,331.3276280000573,331.6949583000969,space,1,0.36210919998120517,None,331.69885800010525,332.2101292000152,333.2093802000163,333.1936347000301,,,,,,,,,,,,,,,,,010,001,2025-05-02_22h03.19.559,Cued GoNogo Task,2024.2.4,60.01954233012083,2025-05-02 22h03.27.515659 +0200,
block/CondBlock1.xlsx,You are about to start a block of type 1 trials.,87,87,0,Go,Go,0.41,0.2,0.05,space,green,vertical,space,1.2357567000435665,None,space,1,0.336819100077264,None,,,,0,0,0,0,0,87,87,87,333.2093802000163,,,,,,,,,,,,,,,,333.1939333000919,333.2093802000163,333.9088176001096,333.9088176001096,334.4082779000746,334.3926032000454,334.39337689999957,334.4082779000746,334.82469650008716,335.0077132000588,335.0077132000588,335.358684200095,space,1,0.336819100077264,None,335.3628026000224,335.87384670006577,336.87306070001796,336.8574850000441,,,,,,,,,,,,,,,,,010,001,2025-05-02_22h03.19.559,Cued GoNogo Task,2024.2.4,60.01954233012083,2025-05-02 22h03.27.515659 +0200,
block/CondBlock1.xlsx,You are about to start a block of type 1 trials.,88,88,0,NoGo,NoGo,0.15,0.2,0.05,none,green,vertical,space,1.2357567000435665,None,None,1,,,,,,0,0,0,0,0,88,88,88,336.87306070001796,,,,,,,,,,,,,,,,336.857931900071,336.87306070001796,337.572339400067,337.572339400067,338.07193460001145,338.05585010000505,338.0564305000007,338.07193460001145,338.22187450004276,338.4217850000132,338.4217850000132,338.90520770009607,None,1,,,338.9074158000294,339.4208856000332,340.4200909000356,340.40386310010217,338.92121510009747,338.92121510009747,,,,,,,,,,,,,,,010,001,2025-05-02_22h03.19.559,Cued GoNogo Task,2024.2.4,60.01954233012083,2025-05-02 22h03.27.515659 +0200,
block/CondBlock1.xlsx,You are about to start a block of type 1 trials.,89,89,0,Go,Go,0.24,0.05,0.2,space,blue,horizontal,space,1.2357567000435665,None,space,1,0.39616759994532913,None,,,,0,0,0,0,0,89,89,89,340.4200909000356,,,,,,,,,,,,,,,,340.40410430007614,340.4200909000356,341.1193906000117,341.1193906000117,341.6189311000053,341.60297870007344,341.6034779000329,341.6189311000053,341.86888640001416,342.05191150004975,342.05191150004975,342.4529736000113,space,1,0.39616759994532913,None,342.4591914000921,342.9679084001109,343.9671221000608,343.9510883000912,,,,,,,,,,,,,,,,,010,001,2025-05-02_22h03.19.559,Cued GoNogo Task,2024.2.4,60.01954233012083,2025-05-02 22h03.27.515659 +0200,
block/CondBlock1.xlsx,You are about to start a block of type 1 trials.,90,90,0,Go,Go,0.25,0.2,0.05,space,blue,vertical,space,1.2357567000435665,None,space,1,0.3119375000242144,None,,,,0,0,0,0,0,90,90,90,343.9671221000608,,,,,,,,,,,,,,,,343.9513211000012,343.9671221000608,344.66661240009125,344.66661240009125,345.1660844000289,345.1500351000577,345.1506541999988,345.1660844000289,345.4158239000244,345.6157787000993,345.6157787000993,345.9336406000657,space,1,0.3119375000242144,None,345.9368292000145,346.44858860003296,347.4475484000286,347.431502200081,,,,,,,,,,,,,,,,,010,001,2025-05-02_22h03.19.559,Cued GoNogo Task,2024.2.4,60.01954233012083,2025-05-02 22h03.27.515659 +0200,
block/CondBlock1.xlsx,You are about to start a block of type 1 trials.,91,91,0,Go,Go,0.26,0.05,0.2,space,green,horizontal,space,1.2357567000435665,None,space,1,0.3122798000695184,None,,,,0,0,0,0,0,91,91,91,347.4475484000286,,,,,,,,,,,,,,,,347.4317218000069,347.4475484000286,348.14699400006793,348.14699400006793,348.6467094999971,348.6309411000693,348.63191070000175,348.6467094999971,348.9131063000532,349.09622050006874,349.09622050006874,349.41346140007954,space,1,0.3122798000695184,None,349.416909600026,349.92875670001376,350.9279988000635,350.9121376000112,,,,,,,,,,,,,,,,,010,001,2025-05-02_22h03.19.559,Cued GoNogo Task,2024.2.4,60.01954233012083,2025-05-02 22h03.27.515659 +0200,
block/CondBlock1.xlsx,You are about to start a block of type 1 trials.,92,92,0,NoGo,NoGo,0.44,0.2,0.05,none,blue,vertical,space,1.2357567000435665,None,None,1,,,,,,0,0,0,0,0,92,92,92,350.9279988000635,,,,,,,,,,,,,,,,350.91240500006825,350.9279988000635,351.6274949000217,351.6274949000217,352.1269795000553,352.1112837000983,352.11203330010176,352.1269795000553,352.57666310004424,352.75987570011057,352.75987570011057,353.24314750009216,None,1,,,353.24580670008436,353.74249269999564,354.7417021000292,354.7255956000881,353.2592166000977,353.2592166000977,,,,,,,,,,,,,,,010,001,2025-05-02_22h03.19.559,Cued GoNogo Task,2024.2.4,60.01954233012083,2025-05-02 22h03.27.515659 +0200,
block/CondBlock1.xlsx,You are about to start a block of type 1 trials.,93,93,0,Go,Go,0.13,0.2,0.05,space,green,vertical,space,1.2357567000435665,None,space,1,0.3502359000267461,None,,,,0,0,0,0,0,93,93,93,354.7417021000292,,,,,,,,,,,,,,,,354.72587930003647,354.7581409000559,355.45758300006855,355.45758300006855,355.9572494000895,355.9418212000746,355.94279550004285,355.9572494000895,356.09045350004453,356.2738101000432,356.2738101000432,356.6405971000204,space,1,0.3502359000267461,None,356.6431783000007,357.1395842001075,358.13879590004217,358.1227946000872,,,,,,,,,,,,,,,,,010,001,2025-05-02_22h03.19.559,Cued GoNogo Task,2024.2.4,60.01954233012083,2025-05-02 22h03.27.515659 +0200,
block/CondBlock1.xlsx,You are about to start a block of type 1 trials.,94,94,0,Go,Go,0.44,0.05,0.2,space,blue,horizontal,space,1.2357567000435665,None,space,1,0.4292434999952093,None,,,,0,0,0,0,0,94,94,94,358.13879590004217,,,,,,,,,,,,,,,,358.12310389999766,358.1556501000887,358.8546524000121,358.8713160000043,359.3542021000758,359.3383890000405,359.33886560006067,359.3542021000758,359.80401010008063,359.987166200066,359.987166200066,360.42150650010444,space,1,0.4292434999952093,None,360.4249251000583,360.936505000107,361.9356299000792,361.91950550000183,,,,,,,,,,,,,,,,,010,001,2025-05-02_22h03.19.559,Cued GoNogo Task,2024.2.4,60.01954233012083,2025-05-02 22h03.27.515659 +0200,
block/CondBlock1.xlsx,You are about to start a block of type 1 trials.,95,95,0,Go,Go,0.15,0.2,0.05,space,green,vertical,space,1.2357567000435665,None,None,0,,,,,,0,0,0,0,0,95,95,95,361.9356299000792,,,,,,,,,,,,,,,,361.91976110008545,361.9356299000792,362.63504290010314,362.63504290010314,363.134528900031,363.1193738000002,363.12042410008144,363.134528900031,363.2847060000058,363.4845962000545,363.4845962000545,363.96768700005487,None,0,,,363.97055550001096,364.46690210001543,365.46620820008684,365.4499588001054,363.9837601000909,363.9837601000909,,,,,,,,,,,,,,,010,001,2025-05-02_22h03.19.559,Cued GoNogo Task,2024.2.4,60.01954233012083,2025-05-02 22h03.27.515659 +0200,
block/CondBlock1.xlsx,You are about to start a block of type 1 trials.,96,96,0,Go,Go,0.49,0.2,0.05,space,green,vertical,space,1.2357567000435665,None,space,1,0.4276394998887554,None,,,,0,0,0,0,0,96,96,96,365.46620820008684,,,,,,,,,,,,,,,,365.4502197999973,365.4826522000367,366.1821160000982,366.1821160000982,366.68176910001785,366.66580290009733,366.6663910000352,366.68176910001785,367.18122550006956,367.36451650003437,367.36451650003437,367.7986608000938,space,1,0.4276394998887554,None,367.8030161000788,368.3138219000539,369.31280340009835,369.29715090000536,,,,,,,,,,,,,,,,,010,001,2025-05-02_22h03.19.559,Cued GoNogo Task,2024.2.4,60.01954233012083,2025-05-02 22h03.27.515659 +0200,
block/CondBlock1.xlsx,You are about to start a block of type 1 trials.,97,97,0,Go,Go,0.11,0.2,0.05,space,blue,vertical,space,1.2357567000435665,None,space,1,0.38799229997675866,None,,,,0,0,0,0,0,97,97,97,369.31280340009835,,,,,,,,,,,,,,,,369.2974553001113,369.31280340009835,370.0122768000001,370.0122768000001,370.51205270003993,370.49584920005873,370.4962858000072,370.51205270003993,370.62852190004196,370.8116141000064,370.8116141000064,371.2120451000519,space,1,0.38799229997675866,None,371.2153733000159,371.7108490000246,372.71001690009143,372.69412740005646,,,,,,,,,,,,,,,,,010,001,2025-05-02_22h03.19.559,Cued GoNogo Task,2024.2.4,60.01954233012083,2025-05-02 22h03.27.515659 +0200,
block/CondBlock1.xlsx,You are about to start a block of type 1 trials.,98,98,0,Go,Go,0.26,0.05,0.2,space,green,horizontal,space,1.2357567000435665,None,space,1,0.3678056999342516,None,,,,0,0,0,0,0,98,98,98,372.71001690009143,,,,,,,,,,,,,,,,372.69435090001207,372.72678180004004,373.4262626999989,373.4262626999989,373.92567270004656,373.91001570003573,373.9107449000003,373.92567270004656,374.1922992001055,374.3754289000062,374.3754289000062,374.759478699998,space,1,0.3678056999342516,None,374.76328810001723,375.27447260008194,376.2740227000322,376.25783770007547,,,,,,,,,,,,,,,,,010,001,2025-05-02_22h03.19.559,Cued GoNogo Task,2024.2.4,60.01954233012083,2025-05-02 22h03.27.515659 +0200,
block/CondBlock1.xlsx,You are about to start a block of type 1 trials.,99,99,0,Go,Go,0.28,0.05,0.2,space,green,horizontal,space,1.2357567000435665,None,space,1,0.364847999997437,None,,,,0,0,0,0,0,99,99,99,376.2740227000322,,,,,,,,,,,,,,,,376.2581021001097,376.2740227000322,376.97344060009345,376.97344060009345,377.472863300005,377.4570781000657,377.4578173001064,377.472863300005,377.7560050000902,377.93914930010214,377.93914930010214,378.307445500046,space,1,0.364847999997437,None,378.3118346000556,378.8217135000741,379.8227431999985,379.80523510009516,,,,,,,,,,,,,,,,,010,001,2025-05-02_22h03.19.559,Cued GoNogo Task,2024.2.4,60.01954233012083,2025-05-02 22h03.27.515659 +0200,
block/CondBlock1.xlsx,You are about to start a block of type 1 trials.,0,0,0,,,,,,,,,space,1.2357567000435665,None,,,,,space,1.0170299999881536,None,0,0,0,0,,,,,,,,,,,,,,,,,,,,,,,,,,,,,,,,,,,,,,,,,,,379.8203891000012,379.8227431999985,379.8227431999985,380.8542463000631,space,1.0170299999881536,None,,,,,,,,010,001,2025-05-02_22h03.19.559,Cued GoNogo Task,2024.2.4,60.01954233012083,2025-05-02 22h03.27.515659 +0200,
block/CondBlock2.xlsx,You are about to start a block of type 2 trials.,0,0,0,Go,Go,0.18,0.05,0.2,space,green,horizontal,space,292.65829219995067,None,space,1,0.43314840004313737,None,,,,0,1,1,1,0,0,0,0,673.5505692000734,,,,,,,,,380.8573681000853,380.86994960007723,380.86994960007723,673.5314789999975,space,292.65829219995067,None,673.54840780003,673.5505692000734,674.2455817000009,674.2622739000944,674.7450152001111,674.7295021000318,674.7305653000949,674.7450152001111,674.9283814000664,675.1116263000295,675.1116263000295,675.547079400043,space,1,0.43314840004313737,None,675.5508033001097,676.0608066000277,677.0598633000627,677.0438522000331,,,,,,,,,,,,,,,,,010,001,2025-05-02_22h03.19.559,Cued GoNogo Task,2024.2.4,60.01954233012083,2025-05-02 22h03.27.515659 +0200,
block/CondBlock2.xlsx,You are about to start a block of type 2 trials.,1,1,0,Go,Go,0.2,0.2,0.05,space,green,vertical,space,292.65829219995067,None,space,1,0.3812505000969395,None,,,,0,1,1,1,0,1,1,1,677.0598633000627,,,,,,,,,,,,,,,,677.0440740000922,677.0598633000627,677.7593367000809,677.7593367000809,678.258822600008,678.2433132000733,678.2442322000861,678.258822600008,678.4586109000957,678.6586989000207,678.6586989000207,679.0426832000958,space,1,0.3812505000969395,None,679.0461894000182,679.5579671000596,680.5568578001112,680.5413482000586,,,,,,,,,,,,,,,,,010,001,2025-05-02_22h03.19.559,Cued GoNogo Task,2024.2.4,60.01954233012083,2025-05-02 22h03.27.515659 +0200,
block/CondBlock2.xlsx,You are about to start a block of type 2 trials.,2,2,0,Go,Go,0.22,0.05,0.2,space,blue,horizontal,space,292.65829219995067,None,space,1,0.4605574000161141,None,,,,0,1,1,1,0,2,2,2,680.5568578001112,,,,,,,,,,,,,,,,680.5417606000556,680.5568578001112,681.2564227000112,681.2564227000112,681.7559828000376,681.7398184000049,681.7403371999972,681.7559828000376,681.9891989000607,682.1721920000855,682.1721920000855,682.6395978000946,space,1,0.4605574000161141,None,682.6438921000808,683.1547664001118,684.1540043000132,684.1379259000532,,,,,,,,,,,,,,,,,010,001,2025-05-02_22h03.19.559,Cued GoNogo Task,2024.2.4,60.01954233012083,2025-05-02 22h03.27.515659 +0200,
block/CondBlock2.xlsx,You are about to start a block of type 2 trials.,3,3,0,Go,Go,0.14,0.05,0.2,space,green,horizontal,space,292.65829219995067,None,space,1,0.3956433000275865,None,,,,0,1,1,1,0,3,3,3,684.1540043000132,,,,,,,,,,,,,,,,684.1382183000678,684.1540043000132,684.8536221000832,684.8536221000832,685.3529289000435,685.3369549000636,685.3375660000602,685.3529289000435,685.5028070000699,685.6860621001106,685.6860621001106,686.0868140000384,space,1,0.3956433000275865,None,686.0923328000354,686.6019830000587,687.6011130000697,687.5851197000593,,,,,,,,,,,,,,,,,010,001,2025-05-02_22h03.19.559,Cued GoNogo Task,2024.2.4,60.01954233012083,2025-05-02 22h03.27.515659 +0200,
block/CondBlock2.xlsx,You are about to start a block of type 2 trials.,4,4,0,Go,Go,0.26,0.05,0.2,space,blue,horizontal,space,292.65829219995067,None,space,1,0.31162150006275624,None,,,,0,1,1,1,0,4,4,4,687.6011130000697,,,,,,,,,,,,,,,,687.5854022999993,687.6011130000697,688.3006082000211,688.3006082000211,688.8000543001108,688.7845130000496,688.7851655000122,688.8000543001108,689.0665630000876,689.2496923001017,689.2496923001017,689.5673633000115,space,1,0.31162150006275624,None,689.5707256000023,690.0825498000486,,691.0817957000108,,,,,,,,,,,,,,,,,010,001,2025-05-02_22h03.19.559,Cued GoNogo Task,2024.2.4,60.01954233012083,2025-05-02 22h03.27.515659 +0200,
block/CondBlock2.xlsx,You are about to start a block of type 2 trials.,5,5,0,Go,Go,0.1,0.05,0.2,space,blue,horizontal,space,292.65829219995067,None,space,1,0.2597013999475166,None,,,,0,1,1,1,0,5,5,5,691.0981611000607,,,,,,,,,,,,,,,,691.0820803000825,691.0981611000607,691.7810975000029,691.7976525000995,692.280562800006,692.2648938000202,692.2655508000171,692.280562800006,692.3803609000752,692.5803444000194,692.5803444000194,692.8477058000863,space,1,0.2597013999475166,None,692.8515719000716,693.3629449000582,694.3621408001054,694.3462193000596,,,,,,,,,,,,,,,,,010,001,2025-05-02_22h03.19.559,Cued GoNogo Task,2024.2.4,60.01954233012083,2025-05-02 22h03.27.515659 +0200,
block/CondBlock2.xlsx,You are about to start a block of type 2 trials.,6,6,0,NoGo,NoGo,0.3,0.2,0.05,none,green,vertical,space,292.65829219995067,None,space,0,0.30763549997936934,None,,,,0,1,1,1,0,6,6,6,694.3621408001054,,,,,,,,,,,,,,,,694.3464423000114,694.3621408001054,695.0616031000391,695.0616031000391,695.5611865000101,695.545526000089,695.5462854000507,695.5611865000101,695.8609309000894,696.0610105000669,696.0610105000669,696.3785924999975,space,0,0.30763549997936934,None,696.3832140000304,696.8935675000539,697.8927005000878,697.8767885999987,,,,,,,,,,,,,,,,,010,001,2025-05-02_22h03.19.559,Cued GoNogo Task,2024.2.4,60.01954233012083,2025-05-02 22h03.27.515659 +0200,
block/CondBlock2.xlsx,You are about to start a block of type 2 trials.,7,7,0,NoGo,NoGo,0.14,0.05,0.2,none,blue,horizontal,space,292.65829219995067,None,None,1,,,,,,0,1,1,1,0,7,7,7,697.8927005000878,,,,,,,,,,,,,,,,697.8770900000818,697.8927005000878,698.5920965000987,698.5920965000987,699.0916609000415,699.0755153000355,699.0759894000366,699.0916609000415,699.2414141000481,699.4247070000274,699.4247070000274,699.9085434000008,None,1,,,699.9114416000666,700.4237322000554,701.4230497000972,701.4075436000712,699.9242403000826,699.9242403000826,,,,,,,,,,,,,,,010,001,2025-05-02_22h03.19.559,Cued GoNogo Task,2024.2.4,60.01954233012083,2025-05-02 22h03.27.515659 +0200,
block/CondBlock2.xlsx,You are about to start a block of type 2 trials.,8,8,0,Go,Go,0.13,0.2,0.05,space,blue,vertical,space,292.65829219995067,None,space,1,0.34218549996148795,None,,,,0,1,1,1,0,8,8,8,701.4230497000972,,,,,,,,,,,,,,,,701.4078316000523,701.4230497000972,702.122450600029,702.122450600029,702.6221555001102,702.6061378000304,702.6067582000978,702.6221555001102,702.7555132000707,702.9384360000258,702.9384360000258,703.2893365001073,space,1,0.34218549996148795,None,703.2937546001049,703.8044626000337,704.8037143000402,704.7876098999986,,,,,,,,,,,,,,,,,010,001,2025-05-02_22h03.19.559,Cued GoNogo Task,2024.2.4,60.01954233012083,2025-05-02 22h03.27.515659 +0200,
block/CondBlock2.xlsx,You are about to start a block of type 2 trials.,9,9,0,Go,Go,0.43,0.2,0.05,space,green,vertical,space,292.65829219995067,None,space,1,0.325884300051257,None,,,,0,1,1,1,0,9,9,9,704.8037143000402,,,,,,,,,,,,,,,,704.7879775000038,704.8037143000402,705.502976900083,705.502976900083,706.002591000055,705.9867579001002,705.987424400053,706.002591000055,706.4354794000974,706.6187024000101,706.6187024000101,706.9525818000548,space,1,0.325884300051257,None,706.9552367000142,707.4517215000233,708.467197000049,708.4511341000907,,,,,,,,,,,,,,,,,010,001,2025-05-02_22h03.19.559,Cued GoNogo Task,2024.2.4,60.01954233012083,2025-05-02 22h03.27.515659 +0200,
block/CondBlock2.xlsx,You are about to start a block of type 2 trials.,10,10,0,Go,Go,0.14,0.2,0.05,space,green,vertical,space,292.65829219995067,None,space,1,0.32175830006599426,None,,,,0,1,1,1,0,10,10,10,708.467197000049,,,,,,,,,,,,,,,,708.4513536000159,708.467197000049,709.1665533001069,709.1665533001069,709.6662919000955,709.650097600068,709.6504703999963,709.6662919000955,709.8162945000222,709.9993430000031,709.9993430000031,710.3334167000139,space,1,0.32175830006599426,None,710.3374801001046,710.8486787000438,711.8478264000732,711.8315711000469,,,,,,,,,,,,,,,,,010,001,2025-05-02_22h03.19.559,Cued GoNogo Task,2024.2.4,60.01954233012083,2025-05-02 22h03.27.515659 +0200,
block/CondBlock2.xlsx,You are about to start a block of type 2 trials.,11,11,0,Go,Go,0.27,0.2,0.05,space,green,vertical,space,292.65829219995067,None,space,1,0.3351360000669956,None,,,,0,1,1,1,0,11,11,11,711.8478264000732,,,,,,,,,,,,,,,,711.8317796000047,711.8478264000732,712.5472984000808,712.5472984000808,713.046806300059,713.0307583000977,713.0312208000105,713.046806300059,713.3299100000877,713.512981900014,713.512981900014,713.8642285000533,space,1,0.3351360000669956,None,713.8690612000646,714.3790290000616,715.3781897000736,715.3624793000054,,,,,,,,,,,,,,,,,010,001,2025-05-02_22h03.19.559,Cued GoNogo Task,2024.2.4,60.01954233012083,2025-05-02 22h03.27.515659 +0200,
block/CondBlock2.xlsx,You are about to start a block of type 2 trials.,12,12,0,Go,Go,0.3,0.05,0.2,space,green,horizontal,space,292.65829219995067,None,space,1,0.3007059000665322,None,,,,0,1,1,1,0,12,12,12,715.3781897000736,,,,,,,,,,,,,,,,715.362768100109,715.3781897000736,716.0776726000477,716.0776726000477,716.5772946000798,716.5612402000697,716.5618075000821,716.5772946000798,716.8769781000447,717.0768296000315,717.0768296000315,717.3942334000021,space,1,0.3007059000665322,None,717.3973706000252,717.9097352001118,718.9086361000082,718.8931178000057,,,,,,,,,,,,,,,,,010,001,2025-05-02_22h03.19.559,Cued GoNogo Task,2024.2.4,60.01954233012083,2025-05-02 22h03.27.515659 +0200,
block/CondBlock2.xlsx,You are about to start a block of type 2 trials.,13,13,0,Go,Go,0.18,0.2,0.05,space,blue,vertical,space,292.65829219995067,None,space,1,0.30134430003818125,None,,,,0,1,1,1,0,13,13,13,718.9086361000082,,,,,,,,,,,,,,,,718.8935379000613,718.9086361000082,719.6080948000308,719.6080948000308,720.1076818000292,720.0918326000683,720.0924914000789,720.1076818000292,720.2908624000847,720.4742815000936,720.4742815000936,720.7916093000676,space,1,0.30134430003818125,None,720.795477500069,721.3066510000499,722.3058533000294,722.2901126000797,,,,,,,,,,,,,,,,,010,001,2025-05-02_22h03.19.559,Cued GoNogo Task,2024.2.4,60.01954233012083,2025-05-02 22h03.27.515659 +0200,
block/CondBlock2.xlsx,You are about to start a block of type 2 trials.,14,14,0,Go,Go,0.13,0.2,0.05,space,green,vertical,space,292.65829219995067,None,space,1,0.3549217999679968,None,,,,0,1,1,1,0,14,14,14,722.3058533000294,,,,,,,,,,,,,,,,722.2905405000784,722.3058533000294,723.0053563000401,723.0053563000401,723.5049021000741,723.4891130001051,723.489821300027,723.5049021000741,723.6381119000725,723.8213974001119,723.8213974001119,724.1890704000834,space,1,0.3549217999679968,None,724.1932277000742,724.7039713000413,725.7029781000456,725.68697540008,,,,,,,,,,,,,,,,,010,001,2025-05-02_22h03.19.559,Cued GoNogo Task,2024.2.4,60.01954233012083,2025-05-02 22h03.27.515659 +0200,
block/CondBlock2.xlsx,You are about to start a block of type 2 trials.,15,15,0,Go,Go,0.18,0.2,0.05,space,blue,vertical,space,292.65829219995067,None,space,1,0.3794098000507802,None,,,,0,1,1,1,0,15,15,15,725.7029781000456,,,,,,,,,,,,,,,,725.6871847000439,725.7029781000456,726.4025297000771,726.4025297000771,726.9022109000944,726.8861684000585,726.8868421000661,726.9022109000944,727.0853518000804,727.2685089000734,727.2685089000734,727.6532280000392,space,1,0.3794098000507802,None,727.6580339000793,728.1677418000763,729.1667836999986,729.1511572001036,,,,,,,,,,,,,,,,,010,001,2025-05-02_22h03.19.559,Cued GoNogo Task,2024.2.4,60.01954233012083,2025-05-02 22h03.27.515659 +0200,
block/CondBlock2.xlsx,You are about to start a block of type 2 trials.,16,16,0,Go,Go,0.24,0.2,0.05,space,green,vertical,space,292.65829219995067,None,space,1,0.32859829999506474,None,,,,0,1,1,1,0,16,16,16,729.1667836999986,,,,,,,,,,,,,,,,729.1514828000218,729.1667836999986,729.8663270000834,729.8663270000834,730.3659895000746,730.3501494000666,730.3507959000999,730.3659895000746,730.6156999000814,730.7988570000743,730.7988570000743,731.1330809000647,space,1,0.32859829999506474,None,731.1367179000517,731.6481858000625,732.6473260000348,732.6311491000233,,,,,,,,,,,,,,,,,010,001,2025-05-02_22h03.19.559,Cued GoNogo Task,2024.2.4,60.01954233012083,2025-05-02 22h03.27.515659 +0200,
block/CondBlock2.xlsx,You are about to start a block of type 2 trials.,17,17,0,Go,Go,0.26,0.2,0.05,space,blue,vertical,space,292.65829219995067,None,space,1,0.3760893000289798,None,,,,0,1,1,1,0,17,17,17,732.6473260000348,,,,,,,,,,,,,,,,732.6313454000046,732.6473260000348,733.3467532000504,733.3467532000504,733.8463686000323,733.8306845000479,733.8314912000205,733.8463686000323,734.1128590001026,734.2961739000166,734.2961739000166,734.6801636000164,space,1,0.3760893000289798,None,734.6852146000601,735.1953749000095,736.1944804000668,736.1789381999988,,,,,,,,,,,,,,,,,010,001,2025-05-02_22h03.19.559,Cued GoNogo Task,2024.2.4,60.01954233012083,2025-05-02 22h03.27.515659 +0200,
block/CondBlock2.xlsx,You are about to start a block of type 2 trials.,18,18,0,Go,Go,0.1,0.05,0.2,space,blue,horizontal,space,292.65829219995067,None,space,1,0.3074668999761343,None,,,,0,1,1,1,0,18,18,18,736.1944804000668,,,,,,,,,,,,,,,,736.1792083000764,736.1944804000668,736.8938066000119,736.8938066000119,737.393528600107,737.3774203000357,737.3778434999986,737.393528600107,737.4934343000641,737.6931916000322,737.6931916000322,738.0115389000857,space,1,0.3074668999761343,None,738.0162558000302,738.5259697000729,739.5250072000781,739.5094691000413,,,,,,,,,,,,,,,,,010,001,2025-05-02_22h03.19.559,Cued GoNogo Task,2024.2.4,60.01954233012083,2025-05-02 22h03.27.515659 +0200,
block/CondBlock2.xlsx,You are about to start a block of type 2 trials.,19,19,0,Go,Go,0.46,0.2,0.05,space,blue,vertical,space,292.65829219995067,None,space,1,0.30693170009180903,None,,,,0,1,1,1,0,19,19,19,739.5250072000781,,,,,,,,,,,,,,,,739.5097137000412,739.5250072000781,740.2244737000437,740.2244737000437,740.7240439000307,740.7079995000968,740.7085468000732,740.7240439000307,741.1903440000024,741.3735900000902,741.3735900000902,741.6908911000937,space,1,0.30693170009180903,None,741.6944035000633,742.206299200072,743.205585100106,743.1895676000277,,,,,,,,,,,,,,,,,010,001,2025-05-02_22h03.19.559,Cued GoNogo Task,2024.2.4,60.01954233012083,2025-05-02 22h03.27.515659 +0200,
block/CondBlock2.xlsx,You are about to start a block of type 2 trials.,20,20,0,Go,Go,0.3,0.05,0.2,space,blue,horizontal,space,292.65829219995067,None,space,1,0.3203665000619367,None,,,,0,1,1,1,0,20,20,20,743.205585100106,,,,,,,,,,,,,,,,743.1899065000471,743.205585100106,743.9046865000855,743.9046865000855,744.4043714000145,744.388494700077,744.3892852000427,744.4043714000145,744.7041373000247,744.904152900097,744.904152900097,745.238032800029,space,1,0.3203665000619367,None,745.2408111999976,745.7532441000221,746.7525039000902,746.7364512000931,,,,,,,,,,,,,,,,,010,001,2025-05-02_22h03.19.559,Cued GoNogo Task,2024.2.4,60.01954233012083,2025-05-02 22h03.27.515659 +0200,
block/CondBlock2.xlsx,You are about to start a block of type 2 trials.,21,21,0,Go,Go,0.23,0.05,0.2,space,green,horizontal,space,292.65829219995067,None,space,1,0.3442601999267936,None,,,,0,1,1,1,0,21,21,21,746.7525039000902,,,,,,,,,,,,,,,,746.7366795000853,746.7525039000902,747.4519164001103,747.4519164001103,747.951595999999,747.9354068000102,747.9363455000566,747.951595999999,748.1847244000528,748.3678951000329,748.3678951000329,748.7185603000689,space,1,0.3442601999267936,None,748.722262000083,749.2336068000877,750.2330063000554,750.2170766000636,,,,,,,,,,,,,,,,,010,001,2025-05-02_22h03.19.559,Cued GoNogo Task,2024.2.4,60.01954233012083,2025-05-02 22h03.27.515659 +0200,
block/CondBlock2.xlsx,You are about to start a block of type 2 trials.,22,22,0,Go,Go,0.19,0.2,0.05,space,green,vertical,space,292.65829219995067,None,space,1,0.32230100000742823,None,,,,0,1,1,1,0,22,22,22,750.2330063000554,,,,,,,,,,,,,,,,750.217267400003,750.2330063000554,750.9324587000301,750.9324587000301,751.4320924000349,751.416256400058,751.4170301000122,751.4320924000349,751.6317185000516,751.81487500004,751.81487500004,752.1488751000725,space,1,0.32230100000742823,None,752.1523405000335,752.6643723000307,753.6634985000128,753.6475922000827,,,,,,,,,,,,,,,,,010,001,2025-05-02_22h03.19.559,Cued GoNogo Task,2024.2.4,60.01954233012083,2025-05-02 22h03.27.515659 +0200,
block/CondBlock2.xlsx,You are about to start a block of type 2 trials.,23,23,0,NoGo,NoGo,0.41,0.2,0.05,none,blue,vertical,space,292.65829219995067,None,space,0,0.21858770004473627,None,,,,0,1,1,1,0,23,23,23,753.6634985000128,,,,,,,,,,,,,,,,753.6478672000812,753.6634985000128,754.3628669000464,754.3628669000464,754.8623698001029,754.8466107000131,754.8472460000776,754.8623698001029,755.278719700058,755.4618927000556,755.4618927000556,755.6963508001063,space,0,0.21858770004473627,None,755.701183600002,756.2112689000787,757.2103712001117,757.1948135000421,,,,,,,,,,,,,,,,,010,001,2025-05-02_22h03.19.559,Cued GoNogo Task,2024.2.4,60.01954233012083,2025-05-02 22h03.27.515659 +0200,
block/CondBlock2.xlsx,You are about to start a block of type 2 trials.,24,24,0,Go,Go,0.17,0.2,0.05,space,blue,vertical,space,292.65829219995067,None,space,1,0.3680807000491768,None,,,,0,1,1,1,0,24,24,24,757.2103712001117,,,,,,,,,,,,,,,,757.1951157000149,757.2103712001117,757.9098188000498,757.9098188000498,758.4094613000052,758.3934131000424,758.393853400019,758.4094613000052,758.5925742000109,758.7759109000908,758.7759109000908,759.1601955000078,space,1,0.3680807000491768,None,759.1643611000618,759.6751574000809,760.6742487000301,760.6583925000159,,,,,,,,,,,,,,,,,010,001,2025-05-02_22h03.19.559,Cued GoNogo Task,2024.2.4,60.01954233012083,2025-05-02 22h03.27.515659 +0200,
block/CondBlock2.xlsx,You are about to start a block of type 2 trials.,25,25,0,Go,Go,0.27,0.05,0.2,space,blue,horizontal,space,292.65829219995067,None,space,1,0.3168631000444293,None,,,,0,1,1,1,0,25,25,25,760.6742487000301,,,,,,,,,,,,,,,,760.6586364000104,760.6742487000301,761.3737763001118,761.3737763001118,761.8734727000119,761.8575362000847,761.8581830000039,761.8734727000119,762.1565035000676,762.3397263000952,762.3397263000952,762.6734748000745,space,1,0.3168631000444293,None,762.6769466000842,763.1888871000847,764.1882341000019,764.1720699000871,,,,,,,,,,,,,,,,,010,001,2025-05-02_22h03.19.559,Cued GoNogo Task,2024.2.4,60.01954233012083,2025-05-02 22h03.27.515659 +0200,
block/CondBlock2.xlsx,You are about to start a block of type 2 trials.,26,26,0,Go,Go,0.26,0.05,0.2,space,green,horizontal,space,292.65829219995067,None,None,0,,,,,,0,1,1,1,0,26,26,26,764.1882341000019,,,,,,,,,,,,,,,,764.1724182000617,764.1882341000019,764.8875406000298,764.8875406000298,765.3871249000076,765.3713884000899,765.3719285000116,765.3871249000076,765.6535882001044,765.8367888000794,765.8367888000794,766.3208544000518,None,0,,,766.3255936000496,766.835939600016,767.8350561000407,767.8190917000175,766.3362842000788,766.3362842000788,,,,,,,,,,,,,,,010,001,2025-05-02_22h03.19.559,Cued GoNogo Task,2024.2.4,60.01954233012083,2025-05-02 22h03.27.515659 +0200,
block/CondBlock2.xlsx,You are about to start a block of type 2 trials.,27,27,0,Go,Go,0.22,0.2,0.05,space,green,vertical,space,292.65829219995067,None,space,1,0.3018927000230178,None,,,,0,1,1,1,0,27,27,27,767.8350561000407,,,,,,,,,,,,,,,,767.8193504000083,767.8350561000407,768.534564700094,768.534564700094,769.0341048000846,769.018118100008,769.0187575001037,769.0341048000846,769.2672697000671,769.4505269000074,769.4505269000074,769.7678616000339,space,1,0.3018927000230178,None,769.771207200014,770.2832272000378,771.2823280000594,771.2663321000291,,,,,,,,,,,,,,,,,010,001,2025-05-02_22h03.19.559,Cued GoNogo Task,2024.2.4,60.01954233012083,2025-05-02 22h03.27.515659 +0200,
block/CondBlock2.xlsx,You are about to start a block of type 2 trials.,28,28,0,Go,Go,0.19,0.05,0.2,space,blue,horizontal,space,292.65829219995067,None,space,1,0.26325920003000647,None,,,,0,1,1,1,0,28,28,28,771.2823280000594,,,,,,,,,,,,,,,,771.2665885000024,771.2823280000594,771.9818166000769,771.9818166000769,772.4811909000855,772.4654470001115,772.4661144000711,772.4811909000855,772.6811756000388,772.8642803000985,772.8642803000985,773.1319395001046,space,1,0.26325920003000647,None,773.1353396000341,773.6470875000814,774.6462491001002,774.6301102000289,,,,,,,,,,,,,,,,,010,001,2025-05-02_22h03.19.559,Cued GoNogo Task,2024.2.4,60.01954233012083,2025-05-02 22h03.27.515659 +0200,
block/CondBlock2.xlsx,You are about to start a block of type 2 trials.,29,29,0,Go,Go,0.18,0.05,0.2,space,blue,horizontal,space,292.65829219995067,None,space,1,0.27677659993059933,None,,,,0,1,1,1,0,29,29,29,774.6462491001002,,,,,,,,,,,,,,,,774.6303645001026,774.6462491001002,775.3456194000319,775.3456194000319,775.8450962000061,775.8292467000429,775.8298470000736,775.8450962000061,776.0284246000228,776.2115766000934,776.2115766000934,776.4957536000293,space,1,0.27677659993059933,None,776.500058600097,777.0110389000038,778.0101321000839,777.994551800075,,,,,,,,,,,,,,,,,010,001,2025-05-02_22h03.19.559,Cued GoNogo Task,2024.2.4,60.01954233012083,2025-05-02 22h03.27.515659 +0200,
block/CondBlock2.xlsx,You are about to start a block of type 2 trials.,30,30,0,NoGo,NoGo,0.23,0.2,0.05,none,blue,vertical,space,292.65829219995067,None,space,0,0.279324600007385,None,,,,0,1,1,1,0,30,30,30,778.0101321000839,,,,,,,,,,,,,,,,777.9948743000859,778.0101321000839,778.7094029000727,778.7094029000727,779.2091052000178,779.1929558000993,779.1934295000974,779.2091052000178,779.4422470000573,779.6254558000946,779.6254558000946,779.9096852000803,space,0,0.279324600007385,None,779.9144885001006,780.4247753000818,781.4239689999959,781.4081908001099,,,,,,,,,,,,,,,,,010,001,2025-05-02_22h03.19.559,Cued GoNogo Task,2024.2.4,60.01954233012083,2025-05-02 22h03.27.515659 +0200,
block/CondBlock2.xlsx,You are about to start a block of type 2 trials.,31,31,0,Go,Go,0.43,0.2,0.05,space,green,vertical,space,292.65829219995067,None,space,1,0.33732699998654425,None,,,,0,1,1,1,0,31,31,31,781.4239689999959,,,,,,,,,,,,,,,,781.4084871000377,781.4239689999959,782.1235797000118,782.1235797000118,782.6230440000072,782.6069036000408,782.6075387001038,782.6230440000072,783.0561418000143,783.2391160000116,783.2391160000116,783.589900800027,space,1,0.33732699998654425,None,783.5933324000798,784.1050648000091,785.1041759001091,785.0882791000186,,,,,,,,,,,,,,,,,010,001,2025-05-02_22h03.19.559,Cued GoNogo Task,2024.2.4,60.01954233012083,2025-05-02 22h03.27.515659 +0200,
block/CondBlock2.xlsx,You are about to start a block of type 2 trials.,32,32,0,Go,Go,0.13,0.05,0.2,space,blue,horizontal,space,292.65829219995067,None,space,1,0.2281522999983281,None,,,,0,1,1,1,0,32,32,32,785.1041759001091,,,,,,,,,,,,,,,,785.0885227000108,785.1041759001091,785.8039025000762,785.8039025000762,786.3031705000903,786.2876395001076,786.2884988000151,786.3031705000903,786.4365997000132,786.619776400039,786.619776400039,786.8540557000088,space,1,0.2281522999983281,None,786.8575854001101,787.3690277000424,788.3681323000928,788.3522848000284,,,,,,,,,,,,,,,,,010,001,2025-05-02_22h03.19.559,Cued GoNogo Task,2024.2.4,60.01954233012083,2025-05-02 22h03.27.515659 +0200,
block/CondBlock2.xlsx,You are about to start a block of type 2 trials.,33,33,0,Go,Go,0.45,0.05,0.2,space,green,horizontal,space,292.65829219995067,None,space,1,0.30364259995985776,None,,,,0,1,1,1,0,33,33,33,788.3681323000928,,,,,,,,,,,,,,,,788.3525260000024,788.3681323000928,789.0677806000458,789.0677806000458,789.5673998000566,789.5511869000038,789.5519594000652,789.5673998000566,790.0167925000424,790.2166826000903,790.2166826000903,790.5341575000202,space,1,0.30364259995985776,None,790.5378288000356,791.0494783000322,,792.0487843001029,,,,,,,,,,,,,,,,,010,001,2025-05-02_22h03.19.559,Cued GoNogo Task,2024.2.4,60.01954233012083,2025-05-02 22h03.27.515659 +0200,
block/CondBlock2.xlsx,You are about to start a block of type 2 trials.,34,34,0,Go,Go,0.14,0.2,0.05,space,blue,vertical,space,292.65829219995067,None,space,1,0.31506340007763356,None,,,,0,1,1,1,0,34,34,34,792.0652400000254,,,,,,,,,,,,,,,,792.0492102000862,792.0652400000254,792.7479315000819,792.7647761000553,793.2475973000983,793.2318814001046,793.2326325000031,793.2475973000983,793.3972634000238,793.5805840000976,793.5805840000976,793.8985319000203,space,1,0.31506340007763356,None,793.9018361000344,794.41330070002,795.4123174000997,795.3962632000912,,,,,,,,,,,,,,,,,010,001,2025-05-02_22h03.19.559,Cued GoNogo Task,2024.2.4,60.01954233012083,2025-05-02 22h03.27.515659 +0200,
block/CondBlock2.xlsx,You are about to start a block of type 2 trials.,35,35,0,Go,Go,0.11,0.2,0.05,space,blue,vertical,space,292.65829219995067,None,space,1,0.3291650000028312,None,,,,0,1,1,1,0,35,35,35,795.4123174000997,,,,,,,,,,,,,,,,795.3964463000884,795.4123174000997,796.1119415001012,796.1119415001012,796.6114013000624,796.596076900023,796.5968062001048,796.6114013000624,796.7279423000291,796.9112659000093,796.9112659000093,797.2455421000486,space,1,0.3291650000028312,None,797.2492960001109,797.7606420000084,798.7597992001101,798.7441880000988,,,,,,,,,,,,,,,,,010,001,2025-05-02_22h03.19.559,Cued GoNogo Task,2024.2.4,60.01954233012083,2025-05-02 22h03.27.515659 +0200,
block/CondBlock2.xlsx,You are about to start a block of type 2 trials.,36,36,0,Go,Go,0.15,0.05,0.2,space,green,horizontal,space,292.65829219995067,None,space,1,0.22838169999886304,None,,,,0,1,1,1,0,36,36,36,798.7597992001101,,,,,,,,,,,,,,,,798.7446675000247,798.7597992001101,799.4589817000087,799.4589817000087,799.9585544000147,799.9427161000203,799.9433328000596,799.9585544000147,800.1085733000655,800.3083820000757,800.3083820000757,800.5428522001021,space,1,0.22838169999886304,None,800.5470595000079,801.0577522000531,802.0570187000558,802.0410398000386,,,,,,,,,,,,,,,,,010,001,2025-05-02_22h03.19.559,Cued GoNogo Task,2024.2.4,60.01954233012083,2025-05-02 22h03.27.515659 +0200,
block/CondBlock2.xlsx,You are about to start a block of type 2 trials.,37,37,0,Go,Go,0.15,0.2,0.05,space,green,vertical,space,292.65829219995067,None,space,1,0.3071215000236407,None,,,,0,1,1,1,0,37,37,37,802.0570187000558,,,,,,,,,,,,,,,,802.0412927001016,802.0570187000558,802.7563680000603,802.7563680000603,803.2561879000859,803.2401354000904,803.2408210000722,803.2561879000859,803.4059714000905,803.6056293000001,803.6056293000001,803.9233727001119,space,1,0.3071215000236407,None,803.927255900111,804.4382927000988,805.4373243000591,805.4221366000129,,,,,,,,,,,,,,,,,010,001,2025-05-02_22h03.19.559,Cued GoNogo Task,2024.2.4,60.01954233012083,2025-05-02 22h03.27.515659 +0200,
block/CondBlock2.xlsx,You are about to start a block of type 2 trials.,38,38,0,NoGo,NoGo,0.14,0.2,0.05,none,green,vertical,space,292.65829219995067,None,space,0,0.27175329998135567,None,,,,0,1,1,1,0,38,38,38,805.4373243000591,,,,,,,,,,,,,,,,805.4225727000739,805.4373243000591,806.1369497000705,806.1369497000705,806.6365529000759,806.6206350000575,806.6212434000336,806.6365529000759,806.7863403001102,806.9695284001064,806.9695284001064,807.2538384000072,space,0,0.27175329998135567,None,807.2582628000528,807.7690121000633,808.7680807000725,808.7526152000064,,,,,,,,,,,,,,,,,010,001,2025-05-02_22h03.19.559,Cued GoNogo Task,2024.2.4,60.01954233012083,2025-05-02 22h03.27.515659 +0200,
block/CondBlock2.xlsx,You are about to start a block of type 2 trials.,39,39,0,Go,Go,0.46,0.2,0.05,space,green,vertical,space,292.65829219995067,None,space,1,0.4072509000543505,None,,,,0,1,1,1,0,39,39,39,808.7680807000725,,,,,,,,,,,,,,,,808.7529291000683,808.7680807000725,809.467673300067,809.467673300067,809.9670520001091,809.9517671000212,809.952719300054,809.9670520001091,810.4333839000901,810.6167202000506,810.6167202000506,811.0339990000939,space,1,0.4072509000543505,None,811.0375337000005,811.549470200087,,812.548404000001,,,,,,,,,,,,,,,,,010,001,2025-05-02_22h03.19.559,Cued GoNogo Task,2024.2.4,60.01954233012083,2025-05-02 22h03.27.515659 +0200,
block/CondBlock2.xlsx,You are about to start a block of type 2 trials.,40,40,0,Go,Go,0.5,0.05,0.2,space,blue,horizontal,space,292.65829219995067,None,space,1,0.4008311000652611,None,,,,0,1,1,1,0,40,40,40,812.5649306999985,,,,,,,,,,,,,,,,812.5487358000828,812.5649306999985,813.24794260005,813.2643971000798,813.7473050000845,813.7311983000254,813.7317310000071,813.7473050000845,814.2469962000614,814.4466124000028,814.4466124000028,814.8645461000269,space,1,0.4008311000652611,None,814.8690948000876,815.3793941000476,816.3784648000728,816.3627506000921,,,,,,,,,,,,,,,,,010,001,2025-05-02_22h03.19.559,Cued GoNogo Task,2024.2.4,60.01954233012083,2025-05-02 22h03.27.515659 +0200,
block/CondBlock2.xlsx,You are about to start a block of type 2 trials.,41,41,0,Go,Go,0.16,0.05,0.2,space,green,horizontal,space,292.65829219995067,None,space,1,0.26584320003166795,None,,,,0,1,1,1,0,41,41,41,816.3784648000728,,,,,,,,,,,,,,,,816.3630277001066,816.3784648000728,817.0781156000448,817.0781156000448,817.5776488000993,817.5616007000208,817.5622656000778,817.5776488000993,817.7443539000815,817.9273129000794,817.9273129000794,818.1956596000819,space,1,0.26584320003166795,None,818.2004174001049,818.7099705000874,819.709130100091,819.6932521000272,,,,,,,,,,,,,,,,,010,001,2025-05-02_22h03.19.559,Cued GoNogo Task,2024.2.4,60.01954233012083,2025-05-02 22h03.27.515659 +0200,
