Block,blockMsg,thisN,thisTrialN,thisRepN,CueType,StimType,CueTime,Stim_Height,Stim_Width,CRESP,Color,Orientation,key_resp_2.keys,key_resp_2.rt,key_resp_2.duration,Key_Resp.keys,Key_Resp.corr,Key_Resp.rt,Key_Resp.duration,key_resp_3.keys,key_resp_3.rt,key_resp_3.duration,Blocks.thisRepN,Blocks.thisTrialN,Blocks.thisN,Blocks.thisIndex,Trials.thisRepN,Trials.thisTrialN,Trials.thisN,Trials.thisIndex,thisRow.t,notes,TaskIntro.started,fixation.started,key_resp.started,TaskIntro.stopped,key_resp.keys,key_resp.rt,key_resp.duration,BlockStart.started,BlockStart_Msg.started,key_resp_2.started,BlockStart.stopped,Blocks.key_resp_2.keys,Blocks.key_resp_2.rt,Blocks.key_resp_2.duration,Fixation.started,FixationPhase.started,Blank.started,FixationPhase.stopped,Blank.stopped,Fixation.stopped,Trial.started,Cue.started,Cue.stopped,GoNogo_Stim.started,Key_Resp.started,Trial.stopped,Trials.Key_Resp.keys,Trials.Key_Resp.corr,Trials.Key_Resp.rt,Trials.Key_Resp.duration,Feedback.started,Feedback_Present.started,Feedback_Present.stopped,Feedback.stopped,GoNogo_Stim.stopped,Key_Resp.stopped,BlockEnd.started,BlockEnd_Msg.started,key_resp_3.started,BlockEnd.stopped,Blocks.key_resp_3.keys,Blocks.key_resp_3.rt,Blocks.key_resp_3.duration,TaskEnd.started,ThankYou.started,key_resp_4.started,TaskEnd.stopped,key_resp_4.keys,key_resp_4.rt,key_resp_4.duration,participant,session,date,expName,psychopyVersion,frameRate,expStart,
,,,,,,,,,,,,,,,,,,,,,,,,,,,,,,,,,0.0023588000331074,0.005331500084139407,0.005331500084139407,22.55105080001522,space,22.53250009997282,None,,,,,,,,,,,,,,,,,,,,,,,,,,,,,,,,,,,,,,,,,,,,001,002,2025-05-01_23h37.17.735,Cued GoNogo Task,2024.2.4,60.19491112074511,2025-05-01 23h37.26.613787 +0200,
block/CondBlock1.xlsx,You are about to start a block of type 1 trials.,0,0,0,Go,Go,0.13,0.05,0.2,space,blue,horizontal,space,0.8306701000547037,None,space,1,0.26478969992604107,None,,,,0,0,0,0,0,0,0,0,23.45611510006711,,,,,,,,,22.560268700006418,22.56376040005125,22.56376040005125,23.397823900100775,space,0.8306701000547037,None,23.453562000067905,23.45611510006711,24.11277460004203,24.162735200021416,24.61227110004984,24.59633880003821,24.596854000003077,24.61227110004984,24.745753800030798,24.92882130004,24.92882130004,25.196292100008577,space,1,0.26478969992604107,None,25.20649480004795,25.711535400012508,26.710604200023226,26.694640600006096,,,,,,,,,,,,,,,,,001,002,2025-05-01_23h37.17.735,Cued GoNogo Task,2024.2.4,60.19491112074511,2025-05-01 23h37.26.613787 +0200,
block/CondBlock1.xlsx,You are about to start a block of type 1 trials.,1,1,0,NoGo,NoGo,0.43,0.05,0.2,none,blue,horizontal,space,0.8306701000547037,None,space,0,0.2671420000260696,None,,,,0,0,0,0,0,1,1,1,26.710604200023226,,,,,,,,,,,,,,,,26.69490040000528,26.710604200023226,27.409927100059576,27.409927100059576,27.909639100078493,27.893625500029884,27.89415750000626,27.909639100078493,28.34245810005814,28.525781900039874,28.525781900039874,28.809602400055155,space,0,0.2671420000260696,None,28.816662200028077,29.325199700077064,30.32441830006428,30.308510400005616,,,,,,,,,,,,,,,,,001,002,2025-05-01_23h37.17.735,Cued GoNogo Task,2024.2.4,60.19491112074511,2025-05-01 23h37.26.613787 +0200,
block/CondBlock1.xlsx,You are about to start a block of type 1 trials.,2,2,0,Go,Go,0.12,0.2,0.05,space,blue,vertical,space,0.8306701000547037,None,space,1,0.378347699996084,None,,,,0,0,0,0,0,2,2,2,30.32441830006428,,,,,,,,,,,,,,,,30.308879400021397,30.32441830006428,31.02374510001391,31.02374510001391,31.523234900087118,31.507346600061283,31.507944800076075,31.523234900087118,31.656649900018238,31.839823400019668,31.839823400019668,32.22412190004252,space,1,0.378347699996084,None,32.230687600094825,32.73907580005471,33.738264100044034,33.722752200090326,,,,,,,,,,,,,,,,,001,002,2025-05-01_23h37.17.735,Cued GoNogo Task,2024.2.4,60.19491112074511,2025-05-01 23h37.26.613787 +0200,
block/CondBlock1.xlsx,You are about to start a block of type 1 trials.,3,3,0,NoGo,NoGo,0.18,0.2,0.05,none,green,vertical,space,0.8306701000547037,None,None,1,,,,,,0,0,0,0,0,3,3,3,33.738264100044034,,,,,,,,,,,,,,,,33.723122199997306,33.738264100044034,34.437578100012615,34.437578100012615,34.937375000095926,34.92102970008273,34.92155670002103,34.937375000095926,35.12043310003355,35.303549400065094,35.303549400065094,35.78725180006586,None,1,,,35.789517800090834,36.30278760008514,37.30187190009747,37.28661900002044,35.80308480001986,35.80308480001986,,,,,,,,,,,,,,,001,002,2025-05-01_23h37.17.735,Cued GoNogo Task,2024.2.4,60.19491112074511,2025-05-01 23h37.26.613787 +0200,
block/CondBlock1.xlsx,You are about to start a block of type 1 trials.,4,4,0,Go,Go,0.24,0.05,0.2,space,green,horizontal,space,0.8306701000547037,None,space,1,0.3173738999757916,None,,,,0,0,0,0,0,4,4,4,37.30187190009747,,,,,,,,,,,,,,,,37.28704830002971,37.30187190009747,38.001372200087644,38.001372200087644,38.50105459999759,38.485333800083026,38.486117199994624,38.50105459999759,38.750618000049144,38.93379620008636,38.93379620008636,39.26790510001592,space,1,0.3173738999757916,None,39.27162600005977,39.78316650004126,40.782312000053935,40.766401200089604,,,,,,,,,,,,,,,,,001,002,2025-05-01_23h37.17.735,Cued GoNogo Task,2024.2.4,60.19491112074511,2025-05-01 23h37.26.613787 +0200,
block/CondBlock1.xlsx,You are about to start a block of type 1 trials.,5,5,0,Go,Go,0.21,0.05,0.2,space,blue,horizontal,space,0.8306701000547037,None,space,1,0.2599301999434829,None,,,,0,0,0,0,0,5,5,5,40.782312000053935,,,,,,,,,,,,,,,,40.766642500064336,40.782312000053935,41.481767300050706,41.481767300050706,41.98138660006225,41.96526530000847,41.96565740008373,41.98138660006225,42.198213800089434,42.38112820009701,42.38112820009701,42.6493622000562,space,1,0.2599301999434829,None,42.65617760003079,43.16377149999607,44.1629016000079,44.14694240002427,,,,,,,,,,,,,,,,,001,002,2025-05-01_23h37.17.735,Cued GoNogo Task,2024.2.4,60.19491112074511,2025-05-01 23h37.26.613787 +0200,
block/CondBlock1.xlsx,You are about to start a block of type 1 trials.,6,6,0,Go,Go,0.11,0.2,0.05,space,blue,vertical,space,0.8306701000547037,None,space,1,0.2760351999895647,None,,,,0,0,0,0,0,6,6,6,44.1629016000079,,,,,,,,,,,,,,,,44.14718560001347,44.1629016000079,44.862299100030214,44.862299100030214,45.36209900001995,45.34622270008549,45.34690790006425,45.36209900001995,45.47862660000101,45.661729100043885,45.661729100043885,45.9462596999947,space,1,0.2760351999895647,None,45.950949100079015,46.46114700008184,47.46030170004815,47.4443503000075,,,,,,,,,,,,,,,,,001,002,2025-05-01_23h37.17.735,Cued GoNogo Task,2024.2.4,60.19491112074511,2025-05-01 23h37.26.613787 +0200,
block/CondBlock1.xlsx,You are about to start a block of type 1 trials.,7,7,0,Go,Go,0.15,0.2,0.05,space,blue,vertical,space,0.8306701000547037,None,space,1,0.1605453999945894,None,,,,0,0,0,0,0,7,7,7,47.46030170004815,,,,,,,,,,,,,,,,47.444610800012015,47.46030170004815,48.159627100103535,48.159627100103535,48.65976260008756,48.64317830000073,48.64369100006297,48.65976260008756,48.80925210006535,49.009051800007,49.009051800007,49.17686670005787,space,1,0.1605453999945894,None,49.18282540002838,49.69193270010874,,50.69110710010864,,,,,,,,,,,,,,,,,001,002,2025-05-01_23h37.17.735,Cued GoNogo Task,2024.2.4,60.19491112074511,2025-05-01 23h37.26.613787 +0200,
block/CondBlock1.xlsx,You are about to start a block of type 1 trials.,8,8,0,NoGo,NoGo,0.3,0.05,0.2,none,blue,horizontal,space,0.8306701000547037,None,space,0,0.10011729993857443,None,,,,0,0,0,0,0,8,8,8,50.70743730000686,,,,,,,,,,,,,,,,50.69164360000286,50.70743730000686,51.39026450004894,51.40698070009239,51.89007190009579,51.873876800062135,51.87438470008783,51.89007190009579,52.18991990003269,52.38942030002363,52.38942030002363,52.49177100008819,space,0,0.10011729993857443,None,52.49623260006774,53.00562850001734,54.004866200033575,53.98893620003946,,,,,,,,,,,,,,,,,001,002,2025-05-01_23h37.17.735,Cued GoNogo Task,2024.2.4,60.19491112074511,2025-05-01 23h37.26.613787 +0200,
block/CondBlock1.xlsx,You are about to start a block of type 1 trials.,9,9,0,NoGo,NoGo,0.17,0.05,0.2,none,blue,horizontal,space,0.8306701000547037,None,space,0,0.25626280007418245,None,,,,0,0,0,0,0,9,9,9,54.004866200033575,,,,,,,,,,,,,,,,53.98917600000277,54.004866200033575,54.704298700089566,54.704298700089566,55.203853200073354,55.188376800040714,55.18936570000369,55.203853200073354,55.38699100003578,55.57016050000675,55.57016050000675,55.837847000104375,space,0,0.25626280007418245,None,55.83830730000045,56.35294180002529,57.35192820010707,57.33598840003833,,,,,,,,,,,,,,,,,001,002,2025-05-01_23h37.17.735,Cued GoNogo Task,2024.2.4,60.19491112074511,2025-05-01 23h37.26.613787 +0200,
block/CondBlock1.xlsx,You are about to start a block of type 1 trials.,10,10,0,NoGo,NoGo,0.26,0.2,0.05,none,green,vertical,space,0.8306701000547037,None,None,1,,,,,,0,0,0,0,0,10,10,10,57.35192820010707,,,,,,,,,,,,,,,,57.33621920004953,57.35192820010707,58.05147360009141,58.05147360009141,58.5512022000039,58.53510480001569,58.53569859999698,58.5512022000039,58.81751350010745,59.00068130006548,59.00068130006548,59.484498400008306,None,1,,,59.48682470002677,60.00014000001829,60.9991853000829,60.98349900008179,59.50036370009184,59.50036370009184,,,,,,,,,,,,,,,001,002,2025-05-01_23h37.17.735,Cued GoNogo Task,2024.2.4,60.19491112074511,2025-05-01 23h37.26.613787 +0200,
block/CondBlock1.xlsx,You are about to start a block of type 1 trials.,11,11,0,Go,Go,0.27,0.05,0.2,space,green,horizontal,space,0.8306701000547037,None,space,1,0.2969825000036508,None,,,,0,0,0,0,0,11,11,11,60.9991853000829,,,,,,,,,,,,,,,,60.98379379999824,60.9991853000829,61.69845590007026,61.69845590007026,62.198150400072336,62.18243360007182,62.18339800008107,62.198150400072336,62.48120940010995,62.664465700043365,62.664465700043365,62.96527140005492,space,1,0.2969825000036508,None,62.96908550010994,63.48042650008574,64.47948880004697,64.46354370005429,,,,,,,,,,,,,,,,,001,002,2025-05-01_23h37.17.735,Cued GoNogo Task,2024.2.4,60.19491112074511,2025-05-01 23h37.26.613787 +0200,
block/CondBlock1.xlsx,You are about to start a block of type 1 trials.,12,12,0,Go,Go,0.16,0.2,0.05,space,green,vertical,space,0.8306701000547037,None,space,1,0.26903750002384186,None,,,,0,0,0,0,0,12,12,12,64.47948880004697,,,,,,,,,,,,,,,,64.46379680000246,64.47948880004697,65.17904120008461,65.17904120008461,65.67864660010673,65.66291770001408,65.66388170002028,65.67864660010673,65.84492730000056,66.02826930000447,66.02826930000447,66.31227370002307,space,1,0.26903750002384186,None,66.31499640003312,66.82777220010757,,67.82703030004632,,,,,,,,,,,,,,,,,001,002,2025-05-01_23h37.17.735,Cued GoNogo Task,2024.2.4,60.19491112074511,2025-05-01 23h37.26.613787 +0200,
block/CondBlock1.xlsx,You are about to start a block of type 1 trials.,13,13,0,Go,Go,0.13,0.2,0.05,space,green,vertical,space,0.8306701000547037,None,space,1,0.27646620001178235,None,,,,0,0,0,0,0,13,13,13,67.84351870010141,,,,,,,,,,,,,,,,67.82729220006149,67.84351870010141,68.52639360004105,68.5428363000974,69.02574940002523,69.00961310009006,69.01016060006805,69.02574940002523,69.15912710002158,69.34218050003983,69.34218050003983,69.62652510008775,space,1,0.27646620001178235,None,69.63073040009476,70.14174350001849,71.14066010003444,71.12499890010804,,,,,,,,,,,,,,,,,001,002,2025-05-01_23h37.17.735,Cued GoNogo Task,2024.2.4,60.19491112074511,2025-05-01 23h37.26.613787 +0200,
block/CondBlock1.xlsx,You are about to start a block of type 1 trials.,14,14,0,Go,Go,0.12,0.05,0.2,space,blue,horizontal,space,0.8306701000547037,None,space,1,0.2661819999339059,None,,,,0,0,0,0,0,14,14,14,71.14066010003444,,,,,,,,,,,,,,,,71.12531530007254,71.14066010003444,71.840019700001,71.840019700001,72.33973290002905,72.3238276001066,72.32449610007461,72.33973290002905,72.47312700003386,72.65634400001727,72.65634400001727,72.92521560005844,space,1,0.2661819999339059,None,72.92934060003608,73.43889600003604,74.43810380005743,74.42219240008853,,,,,,,,,,,,,,,,,001,002,2025-05-01_23h37.17.735,Cued GoNogo Task,2024.2.4,60.19491112074511,2025-05-01 23h37.26.613787 +0200,
block/CondBlock1.xlsx,You are about to start a block of type 1 trials.,15,15,0,Go,Go,0.45,0.2,0.05,space,blue,vertical,space,0.8306701000547037,None,space,1,0.26028360007330775,None,,,,0,0,0,0,0,15,15,15,74.43810380005743,,,,,,,,,,,,,,,,74.42244340002071,74.43810380005743,75.13745730009396,75.13745730009396,75.6371454000473,75.62137340009212,75.62211880006362,75.6371454000473,76.08671050006524,76.28647250006907,76.28647250006907,76.55407790001482,space,1,0.26028360007330775,None,76.55797650001477,77.06950380001217,,78.06856240006164,,,,,,,,,,,,,,,,,001,002,2025-05-01_23h37.17.735,Cued GoNogo Task,2024.2.4,60.19491112074511,2025-05-01 23h37.26.613787 +0200,
block/CondBlock1.xlsx,You are about to start a block of type 1 trials.,16,16,0,NoGo,NoGo,0.14,0.2,0.05,none,green,vertical,space,0.8306701000547037,None,space,0,0.23324060009326786,None,,,,0,0,0,0,0,16,16,16,78.08509780000895,,,,,,,,,,,,,,,,78.0689089000225,78.08509780000895,78.76774800010026,78.78444950003177,79.26748700009193,79.25132320006378,79.25185830006376,79.26748700009193,79.4171980000101,79.6006616000086,79.6006616000086,79.83620750007685,space,0,0.23324060009326786,None,79.84150000009686,80.3499884000048,81.34899120009504,81.333019600017,,,,,,,,,,,,,,,,,001,002,2025-05-01_23h37.17.735,Cued GoNogo Task,2024.2.4,60.19491112074511,2025-05-01 23h37.26.613787 +0200,
block/CondBlock1.xlsx,You are about to start a block of type 1 trials.,17,17,0,Go,Go,0.12,0.05,0.2,space,green,horizontal,space,0.8306701000547037,None,space,1,0.2660622999537736,None,,,,0,0,0,0,0,17,17,17,81.34899120009504,,,,,,,,,,,,,,,,81.33329290000256,81.34899120009504,82.04841849999502,82.04841849999502,82.5480776000768,82.53199240006506,82.53257020004094,82.5480776000768,82.68128900008742,82.8642877000384,82.8642877000384,83.13281540002208,space,1,0.2660622999537736,None,83.13742440007627,83.64716829999816,84.64640500000678,84.63025550008751,,,,,,,,,,,,,,,,,001,002,2025-05-01_23h37.17.735,Cued GoNogo Task,2024.2.4,60.19491112074511,2025-05-01 23h37.26.613787 +0200,
block/CondBlock1.xlsx,You are about to start a block of type 1 trials.,18,18,0,Go,Go,0.47,0.2,0.05,space,blue,vertical,space,0.8306701000547037,None,space,1,0.33035240008030087,None,,,,0,0,0,0,0,18,18,18,84.64640500000678,,,,,,,,,,,,,,,,84.63046460004989,84.64640500000678,85.34578220010735,85.34578220010735,85.84527390007861,85.82961260003503,85.83040160010569,85.84527390007861,86.32821340009104,86.51147760008462,86.51147760008462,86.84564320009667,space,1,0.33035240008030087,None,86.84918460005429,87.36074610007927,88.36012470000423,88.34405720001087,,,,,,,,,,,,,,,,,001,002,2025-05-01_23h37.17.735,Cued GoNogo Task,2024.2.4,60.19491112074511,2025-05-01 23h37.26.613787 +0200,
block/CondBlock1.xlsx,You are about to start a block of type 1 trials.,19,19,0,Go,Go,0.18,0.2,0.05,space,green,vertical,space,0.8306701000547037,None,space,1,0.42818230006378144,None,,,,0,0,0,0,0,19,19,19,88.36012470000423,,,,,,,,,,,,,,,,88.34436900005676,88.36012470000423,89.0594610000262,89.0594610000262,89.5588419000851,89.54288990003988,89.54341210005805,89.5588419000851,89.74194140010513,89.92529790010303,89.92529790010303,90.35933220002335,space,1,0.42818230006378144,None,90.36233310005628,90.87443359999452,91.87362349999603,91.85781860002317,,,,,,,,,,,,,,,,,001,002,2025-05-01_23h37.17.735,Cued GoNogo Task,2024.2.4,60.19491112074511,2025-05-01 23h37.26.613787 +0200,
block/CondBlock1.xlsx,You are about to start a block of type 1 trials.,20,20,0,Go,Go,0.19,0.2,0.05,space,blue,vertical,space,0.8306701000547037,None,space,1,0.29914300004020333,None,,,,0,0,0,0,0,20,20,20,91.87362349999603,,,,,,,,,,,,,,,,91.85801730002277,91.87362349999603,92.57311340002343,92.57311340002343,93.0727598000085,93.05662250006571,93.05727480002679,93.0727598000085,93.27254410006572,93.45556980010588,93.45556980010588,93.75762490008492,space,1,0.29914300004020333,None,93.76160560001153,94.27179510006681,95.27104630006943,95.25497860007454,,,,,,,,,,,,,,,,,001,002,2025-05-01_23h37.17.735,Cued GoNogo Task,2024.2.4,60.19491112074511,2025-05-01 23h37.26.613787 +0200,
block/CondBlock1.xlsx,You are about to start a block of type 1 trials.,21,21,0,Go,Go,0.14,0.2,0.05,space,blue,vertical,space,0.8306701000547037,None,space,1,0.3425017000408843,None,,,,0,0,0,0,0,21,21,21,95.27104630006943,,,,,,,,,,,,,,,,95.25521470000967,95.27104630006943,95.97064050007612,95.97064050007612,96.47003570001107,96.45381390000694,96.45431729999837,96.47003570001107,96.61991540004965,96.80291830003262,96.80291830003262,97.1535471000243,space,1,0.3425017000408843,None,97.15743140003178,97.66905330005102,,98.66837500000838,,,,,,,,,,,,,,,,,001,002,2025-05-01_23h37.17.735,Cued GoNogo Task,2024.2.4,60.19491112074511,2025-05-01 23h37.26.613787 +0200,
block/CondBlock1.xlsx,You are about to start a block of type 1 trials.,22,22,0,Go,Go,0.15,0.2,0.05,space,blue,vertical,space,0.8306701000547037,None,space,1,0.4407180000562221,None,,,,0,0,0,0,0,22,22,22,98.68462730001193,,,,,,,,,,,,,,,,98.66866040008608,98.68462730001193,99.36761120008305,99.38424790010322,99.86710600007791,99.85093430010602,99.85132750007324,99.86710600007791,100.01711440004874,100.21682190010324,100.21682190010324,100.66736610000953,space,1,0.4407180000562221,None,100.67071030009538,101.18272270006128,102.18184800003655,102.16591670003254,,,,,,,,,,,,,,,,,001,002,2025-05-01_23h37.17.735,Cued GoNogo Task,2024.2.4,60.19491112074511,2025-05-01 23h37.26.613787 +0200,
block/CondBlock1.xlsx,You are about to start a block of type 1 trials.,23,23,0,Go,Go,0.23,0.05,0.2,space,green,horizontal,space,0.8306701000547037,None,space,1,0.4049852000316605,None,,,,0,0,0,0,0,23,23,23,102.18184800003655,,,,,,,,,,,,,,,,102.16617620002944,102.18184800003655,102.88145200000145,102.88145200000145,103.38074900000356,103.36505130003206,103.36574440007098,103.38074900000356,103.61390170000959,103.79727060010191,103.79727060010191,104.21491580002476,space,1,0.4049852000316605,None,104.21910900005605,104.72975670010783,105.7289076000452,105.71296640008222,,,,,,,,,,,,,,,,,001,002,2025-05-01_23h37.17.735,Cued GoNogo Task,2024.2.4,60.19491112074511,2025-05-01 23h37.26.613787 +0200,
block/CondBlock1.xlsx,You are about to start a block of type 1 trials.,24,24,0,Go,Go,0.2,0.2,0.05,space,blue,vertical,space,0.8306701000547037,None,space,1,0.18555479997303337,None,,,,0,0,0,0,0,24,24,24,105.7289076000452,,,,,,,,,,,,,,,,105.71327780000865,105.7289076000452,106.42844630009495,106.42844630009495,106.92798670008779,106.91194100002758,106.91247660003137,106.92798670008779,107.12784280010965,107.32762990007177,107.32762990007177,107.5290286000818,space,1,0.18555479997303337,None,107.53329030005261,108.04389650002122,109.04281640006229,109.02711360005196,,,,,,,,,,,,,,,,,001,002,2025-05-01_23h37.17.735,Cued GoNogo Task,2024.2.4,60.19491112074511,2025-05-01 23h37.26.613787 +0200,
block/CondBlock1.xlsx,You are about to start a block of type 1 trials.,25,25,0,Go,Go,0.15,0.2,0.05,space,blue,vertical,space,0.8306701000547037,None,space,1,0.2106854000594467,None,,,,0,0,0,0,0,25,25,25,109.04281640006229,,,,,,,,,,,,,,,,109.02743230003398,109.04281640006229,109.7422887000721,109.7422887000721,110.24190990009811,110.2261563000502,110.22687620006036,110.24190990009811,110.3919184000697,110.59157400007825,110.59157400007825,110.80926760006696,space,1,0.2106854000594467,None,110.81349390000105,111.32436080009211,112.3237616000697,112.30752300005406,,,,,,,,,,,,,,,,,001,002,2025-05-01_23h37.17.735,Cued GoNogo Task,2024.2.4,60.19491112074511,2025-05-01 23h37.26.613787 +0200,
block/CondBlock1.xlsx,You are about to start a block of type 1 trials.,26,26,0,NoGo,NoGo,0.2,0.2,0.05,none,blue,vertical,space,0.8306701000547037,None,space,0,0.2556715999962762,None,,,,0,0,0,0,0,26,26,26,112.3237616000697,,,,,,,,,,,,,,,,112.30781070003286,112.3237616000697,113.02310940006282,113.02310940006282,113.52254400006495,113.50648030010052,113.50693800009321,113.52254400006495,113.72265040001366,113.92213860002812,113.92213860002812,114.18994870001916,space,0,0.2556715999962762,None,114.19510850007646,114.70500420010649,115.7038994000759,115.68808860005811,,,,,,,,,,,,,,,,,001,002,2025-05-01_23h37.17.735,Cued GoNogo Task,2024.2.4,60.19491112074511,2025-05-01 23h37.26.613787 +0200,
block/CondBlock1.xlsx,You are about to start a block of type 1 trials.,27,27,0,Go,Go,0.29,0.05,0.2,space,green,horizontal,space,0.8306701000547037,None,space,1,0.4315505000995472,None,,,,0,0,0,0,0,27,27,27,115.7038994000759,,,,,,,,,,,,,,,,115.68826580001041,115.7038994000759,116.40373620006721,116.40373620006721,116.90313510003034,116.88732450001407,116.88804039999377,116.90313510003034,117.20283170009498,117.38615960010793,117.38615960010793,117.8213909000624,space,1,0.4315505000995472,None,117.82564350008033,118.33534290001262,119.33463630010374,119.31881060008891,,,,,,,,,,,,,,,,,001,002,2025-05-01_23h37.17.735,Cued GoNogo Task,2024.2.4,60.19491112074511,2025-05-01 23h37.26.613787 +0200,
block/CondBlock1.xlsx,You are about to start a block of type 1 trials.,28,28,0,Go,Go,0.24,0.2,0.05,space,blue,vertical,space,0.8306701000547037,None,None,0,,,,,,0,0,0,0,0,28,28,28,119.33463630010374,,,,,,,,,,,,,,,,119.31918660004158,119.33463630010374,120.03363489999902,120.03363489999902,120.53332430007868,120.51773040008266,120.51825260010082,120.53332430007868,120.78323560010176,120.96626990009099,120.96626990009099,121.44982980005443,None,0,,,121.45323450001888,121.94906370004173,122.94824290007818,122.93225460010581,121.46596340008546,121.46596340008546,,,,,,,,,,,,,,,001,002,2025-05-01_23h37.17.735,Cued GoNogo Task,2024.2.4,60.19491112074511,2025-05-01 23h37.26.613787 +0200,
block/CondBlock1.xlsx,You are about to start a block of type 1 trials.,29,29,0,Go,Go,0.15,0.05,0.2,space,green,horizontal,space,0.8306701000547037,None,space,1,0.2880481000756845,None,,,,0,0,0,0,0,29,29,29,122.94824290007818,,,,,,,,,,,,,,,,122.93253510002978,122.96467090002261,123.66434960009065,123.66434960009065,124.16374990006443,124.14839900005609,124.14945180003997,124.16374990006443,124.3136961000273,124.51352230005432,124.51352230005432,124.81402560009155,space,1,0.2880481000756845,None,124.81727540004067,125.32936780003365,126.32893170008902,126.31297640001867,,,,,,,,,,,,,,,,,001,002,2025-05-01_23h37.17.735,Cued GoNogo Task,2024.2.4,60.19491112074511,2025-05-01 23h37.26.613787 +0200,
block/CondBlock1.xlsx,You are about to start a block of type 1 trials.,30,30,0,Go,Go,0.23,0.2,0.05,space,green,vertical,space,0.8306701000547037,None,space,1,0.34624960005749017,None,,,,0,0,0,0,0,30,30,30,126.32893170008902,,,,,,,,,,,,,,,,126.31334180000704,126.32893170008902,127.02801540005021,127.02801540005021,127.52770510001574,127.51178470009472,127.51247120008338,127.52770510001574,127.76071770000271,127.94391660008114,127.94391660008114,128.29532050003763,space,1,0.34624960005749017,None,128.29935900005512,128.81020880001597,129.80926340003498,129.79368220001925,,,,,,,,,,,,,,,,,001,002,2025-05-01_23h37.17.735,Cued GoNogo Task,2024.2.4,60.19491112074511,2025-05-01 23h37.26.613787 +0200,
block/CondBlock1.xlsx,You are about to start a block of type 1 trials.,31,31,0,Go,Go,0.28,0.2,0.05,space,green,vertical,space,0.8306701000547037,None,space,1,0.302741999970749,None,,,,0,0,0,0,0,31,31,31,129.80926340003498,,,,,,,,,,,,,,,,129.79408300004434,129.80926340003498,130.50852070003748,130.50852070003748,131.0081556000514,130.99212450010236,130.99274710007012,131.0081556000514,131.2914468999952,131.4745025000302,131.4745025000302,131.7919036000967,space,1,0.302741999970749,None,131.79556340002455,132.30713810003363,133.30631630006246,133.29023500008043,,,,,,,,,,,,,,,,,001,002,2025-05-01_23h37.17.735,Cued GoNogo Task,2024.2.4,60.19491112074511,2025-05-01 23h37.26.613787 +0200,
block/CondBlock1.xlsx,You are about to start a block of type 1 trials.,32,32,0,Go,Go,0.19,0.2,0.05,space,green,vertical,space,0.8306701000547037,None,space,1,0.369126999983564,None,,,,0,0,0,0,0,32,32,32,133.30631630006246,,,,,,,,,,,,,,,,133.29045130009763,133.30631630006246,134.00578630005475,134.00578630005475,134.5053127000574,134.48957730003167,134.49039240006823,134.5053127000574,134.70518970000558,134.88842900004238,134.88842900004238,135.27247500000522,space,1,0.369126999983564,None,135.27608930005226,135.78757790010422,136.7867454000516,136.77066020003986,,,,,,,,,,,,,,,,,001,002,2025-05-01_23h37.17.735,Cued GoNogo Task,2024.2.4,60.19491112074511,2025-05-01 23h37.26.613787 +0200,
block/CondBlock1.xlsx,You are about to start a block of type 1 trials.,33,33,0,Go,Go,0.12,0.2,0.05,space,green,vertical,space,0.8306701000547037,None,space,1,0.2602495999308303,None,,,,0,0,0,0,0,33,33,33,136.7867454000516,,,,,,,,,,,,,,,,136.7710438000504,136.7867454000516,137.48639259999618,137.48639259999618,137.9855688000098,137.96969120006543,137.9701616000384,137.9855688000098,138.11887290002778,138.30207730003167,138.30207730003167,138.57049320009537,space,1,0.2602495999308303,None,138.57536510005593,139.08500930003356,140.08407610002905,140.06871030002367,,,,,,,,,,,,,,,,,001,002,2025-05-01_23h37.17.735,Cued GoNogo Task,2024.2.4,60.19491112074511,2025-05-01 23h37.26.613787 +0200,
block/CondBlock1.xlsx,You are about to start a block of type 1 trials.,34,34,0,Go,Go,0.18,0.2,0.05,space,blue,vertical,space,0.8306701000547037,None,space,1,0.31261539994738996,None,,,,0,0,0,0,0,34,34,34,140.08407610002905,,,,,,,,,,,,,,,,140.0691807999974,140.08407610002905,140.78337370010559,140.78337370010559,141.2832585000433,141.26736820000224,141.2682881000219,141.2832585000433,141.46629400004167,141.6493604000425,141.6493604000425,141.96686170005705,space,1,0.31261539994738996,None,141.9700129000703,142.48203130008187,143.48129680007696,143.46519350004382,,,,,,,,,,,,,,,,,001,002,2025-05-01_23h37.17.735,Cued GoNogo Task,2024.2.4,60.19491112074511,2025-05-01 23h37.26.613787 +0200,
block/CondBlock1.xlsx,You are about to start a block of type 1 trials.,35,35,0,Go,Go,0.21,0.2,0.05,space,blue,vertical,space,0.8306701000547037,None,space,1,0.25845029996708035,None,,,,0,0,0,0,0,35,35,35,143.48129680007696,,,,,,,,,,,,,,,,143.46542920009233,143.48129680007696,144.18073550006375,144.18073550006375,144.68034810002428,144.66463150002528,144.6653181000147,144.68034810002428,144.8968510000268,145.07988790003583,145.07988790003583,145.34771640005056,space,1,0.25845029996708035,None,145.35295260010753,145.86265250004362,146.8617975000525,146.8458206000505,,,,,,,,,,,,,,,,,001,002,2025-05-01_23h37.17.735,Cued GoNogo Task,2024.2.4,60.19491112074511,2025-05-01 23h37.26.613787 +0200,
block/CondBlock1.xlsx,You are about to start a block of type 1 trials.,36,36,0,Go,Go,0.2,0.2,0.05,space,green,vertical,space,0.8306701000547037,None,space,1,0.3166358999442309,None,,,,0,0,0,0,0,36,36,36,146.8617975000525,,,,,,,,,,,,,,,,146.84602610010188,146.8617975000525,147.5612724000821,147.5612724000821,148.06083710002713,148.04472050000913,148.04533059999812,148.06083710002713,148.2606960000703,148.46056750009302,148.46056750009302,148.78004490002058,space,1,0.3166358999442309,None,148.7850215000799,149.29333340004086,,150.2924190000631,,,,,,,,,,,,,,,,,001,002,2025-05-01_23h37.17.735,Cued GoNogo Task,2024.2.4,60.19491112074511,2025-05-01 23h37.26.613787 +0200,
block/CondBlock1.xlsx,You are about to start a block of type 1 trials.,37,37,0,Go,Go,0.45,0.05,0.2,space,blue,horizontal,space,0.8306701000547037,None,space,1,0.3084243999328464,None,,,,0,0,0,0,0,37,37,37,150.30897500005085,,,,,,,,,,,,,,,,150.29275180003606,150.30897500005085,150.99174080009107,151.00833560002502,151.4914871000219,151.47531170002185,151.47593780001625,151.4914871000219,151.94099400006235,152.14066940010525,152.14066940010525,152.45812630001456,space,1,0.3084243999328464,None,152.46111040003598,152.97347389999777,153.97266960004345,153.9563974000048,,,,,,,,,,,,,,,,,001,002,2025-05-01_23h37.17.735,Cued GoNogo Task,2024.2.4,60.19491112074511,2025-05-01 23h37.26.613787 +0200,
block/CondBlock1.xlsx,You are about to start a block of type 1 trials.,38,38,0,Go,Go,0.13,0.05,0.2,space,blue,horizontal,space,0.8306701000547037,None,space,1,0.2746416999725625,None,,,,0,0,0,0,0,38,38,38,153.97266960004345,,,,,,,,,,,,,,,,153.95657060004305,153.97266960004345,154.67208000004757,154.67208000004757,155.17160790006164,155.15593810006976,155.15671250002924,155.17160790006164,155.30482730001677,155.4880867000902,155.4880867000902,155.7724613000173,space,1,0.2746416999725625,None,155.775686900015,156.28754390007816,157.2865252000047,157.27104630006943,,,,,,,,,,,,,,,,,001,002,2025-05-01_23h37.17.735,Cued GoNogo Task,2024.2.4,60.19491112074511,2025-05-01 23h37.26.613787 +0200,
block/CondBlock1.xlsx,You are about to start a block of type 1 trials.,39,39,0,Go,Go,0.46,0.2,0.05,space,blue,vertical,space,0.8306701000547037,None,space,1,0.32278379995841533,None,,,,0,0,0,0,0,39,39,39,157.2865252000047,,,,,,,,,,,,,,,,157.27139350003563,157.2865252000047,157.9860071000876,157.9860071000876,158.48550760000944,158.46969390008599,158.47034440003335,158.48550760000944,158.95195700007025,159.13496560009662,159.13496560009662,159.46946010005195,space,1,0.32278379995841533,None,159.47442970005795,159.9845812000567,,160.98363080003764,,,,,,,,,,,,,,,,,001,002,2025-05-01_23h37.17.735,Cued GoNogo Task,2024.2.4,60.19491112074511,2025-05-01 23h37.26.613787 +0200,
block/CondBlock1.xlsx,You are about to start a block of type 1 trials.,40,40,0,Go,Go,0.29,0.2,0.05,space,blue,vertical,space,0.8306701000547037,None,space,1,0.31236450001597404,None,,,,0,0,0,0,0,40,40,40,161.00022440007888,,,,,,,,,,,,,,,,160.98388770001475,161.00022440007888,161.68309060006868,161.69954420009162,162.18245570000727,162.1663678000914,162.16689640004188,162.18245570000727,162.48220910003874,162.66549860010855,162.66549860010855,162.98309370002244,space,1,0.31236450001597404,None,162.98682130000088,163.4981411000481,164.49730290006846,164.48132510005962,,,,,,,,,,,,,,,,,001,002,2025-05-01_23h37.17.735,Cued GoNogo Task,2024.2.4,60.19491112074511,2025-05-01 23h37.26.613787 +0200,
block/CondBlock1.xlsx,You are about to start a block of type 1 trials.,41,41,0,Go,Go,0.22,0.2,0.05,space,blue,vertical,space,0.8306701000547037,None,space,1,0.3050375999882817,None,,,,0,0,0,0,0,41,41,41,164.49730290006846,,,,,,,,,,,,,,,,164.48157960001845,164.49730290006846,165.19661460001953,165.19661460001953,165.69630470010452,165.68023260007612,165.68091330002062,165.69630470010452,165.92944420001004,166.11282700009178,166.11282700009178,166.43008370010648,space,1,0.3050375999882817,None,166.43424790003337,166.94533200003207,167.94444020010997,167.92854640004225,,,,,,,,,,,,,,,,,001,002,2025-05-01_23h37.17.735,Cued GoNogo Task,2024.2.4,60.19491112074511,2025-05-01 23h37.26.613787 +0200,
block/CondBlock1.xlsx,You are about to start a block of type 1 trials.,42,42,0,Go,Go,0.49,0.2,0.05,space,blue,vertical,space,0.8306701000547037,None,space,1,0.2468303000787273,None,,,,0,0,0,0,0,42,42,42,167.94444020010997,,,,,,,,,,,,,,,,167.92882350005675,167.94444020010997,168.6437913000118,168.6437913000118,169.1434234000044,169.12774220004212,169.12842900003307,169.1434234000044,169.64297650009394,169.8263758000685,169.8263758000685,170.07725480000954,space,1,0.2468303000787273,None,170.08069930004422,170.59234269999433,171.59151810000185,171.5757931000553,,,,,,,,,,,,,,,,,001,002,2025-05-01_23h37.17.735,Cued GoNogo Task,2024.2.4,60.19491112074511,2025-05-01 23h37.26.613787 +0200,
block/CondBlock1.xlsx,You are about to start a block of type 1 trials.,43,43,0,Go,Go,0.2,0.2,0.05,space,blue,vertical,space,0.8306701000547037,None,space,1,0.34808499994687736,None,,,,0,0,0,0,0,43,43,43,171.59151810000185,,,,,,,,,,,,,,,,171.57608700008132,171.59151810000185,172.29090840008575,172.29090840008575,172.79062560002785,172.77459680009633,172.7753601000877,172.79062560002785,172.9903081000084,173.19019160000607,173.19019160000607,173.54186460003257,space,1,0.34808499994687736,None,173.5459563001059,174.05599630007055,175.0552078000037,175.03942200005986,,,,,,,,,,,,,,,,,001,002,2025-05-01_23h37.17.735,Cued GoNogo Task,2024.2.4,60.19491112074511,2025-05-01 23h37.26.613787 +0200,
block/CondBlock1.xlsx,You are about to start a block of type 1 trials.,44,44,0,Go,Go,0.3,0.05,0.2,space,blue,horizontal,space,0.8306701000547037,None,space,1,0.3837331000249833,None,,,,0,0,0,0,0,44,44,44,175.0552078000037,,,,,,,,,,,,,,,,175.03972090000752,175.0552078000037,175.75460410001688,175.75460410001688,176.2542105000466,176.23819010006264,176.23880010005087,176.2542105000466,176.55418380000629,176.75395860010758,176.75395860010758,177.14088390010875,space,1,0.3837331000249833,None,177.14612680010032,177.6532423000317,178.65223180002067,178.6363898999989,,,,,,,,,,,,,,,,,001,002,2025-05-01_23h37.17.735,Cued GoNogo Task,2024.2.4,60.19491112074511,2025-05-01 23h37.26.613787 +0200,
block/CondBlock1.xlsx,You are about to start a block of type 1 trials.,45,45,0,NoGo,NoGo,0.21,0.05,0.2,none,green,horizontal,space,0.8306701000547037,None,None,1,,,,,,0,0,0,0,0,45,45,45,178.65223180002067,,,,,,,,,,,,,,,,178.63667650008574,178.65223180002067,179.35159990005195,179.35159990005195,179.851302199997,179.83520470000803,179.8357246000087,179.851302199997,180.06774820003193,180.25085180008318,180.25085180008318,180.73473790008575,None,1,,,180.73719220003113,181.23345570010133,182.23264430009294,182.21697070007212,180.75057710008696,180.75057710008696,,,,,,,,,,,,,,,001,002,2025-05-01_23h37.17.735,Cued GoNogo Task,2024.2.4,60.19491112074511,2025-05-01 23h37.26.613787 +0200,
block/CondBlock1.xlsx,You are about to start a block of type 1 trials.,46,46,0,NoGo,NoGo,0.45,0.05,0.2,none,blue,horizontal,space,0.8306701000547037,None,None,1,,,,,,0,0,0,0,0,46,46,46,182.23264430009294,,,,,,,,,,,,,,,,182.21728080010507,182.24942660005763,182.94889470003545,182.94889470003545,183.44845490006264,183.43220949999522,183.43281150003895,183.44845490006264,183.89795220002998,184.09813630010467,184.09813630010467,184.58150510000996,None,1,,,184.58193900005426,185.0970928000752,186.09688290010672,186.08055890002288,184.597593100043,184.597593100043,,,,,,,,,,,,,,,001,002,2025-05-01_23h37.17.735,Cued GoNogo Task,2024.2.4,60.19491112074511,2025-05-01 23h37.26.613787 +0200,
block/CondBlock1.xlsx,You are about to start a block of type 1 trials.,47,47,0,Go,Go,0.24,0.05,0.2,space,green,horizontal,space,0.8306701000547037,None,None,0,,,,,,0,0,0,0,0,47,47,47,186.09688290010672,,,,,,,,,,,,,,,,186.08097710006405,186.09688290010672,186.79587200004607,186.81215600005817,187.2952432000311,187.2790850000456,187.2795784000773,187.2952432000311,187.54512530006468,187.7282344000414,187.7282344000414,188.21207280003,None,0,,,188.21538880001754,188.72750060004182,189.7263656000141,189.71071180002764,188.22773080004845,188.22773080004845,,,,,,,,,,,,,,,001,002,2025-05-01_23h37.17.735,Cued GoNogo Task,2024.2.4,60.19491112074511,2025-05-01 23h37.26.613787 +0200,
block/CondBlock1.xlsx,You are about to start a block of type 1 trials.,48,48,0,NoGo,NoGo,0.15,0.2,0.05,none,blue,vertical,space,0.8306701000547037,None,space,0,0.2226246000500396,None,,,,0,0,0,0,0,48,48,48,189.7263656000141,,,,,,,,,,,,,,,,189.71107660001144,189.7263656000141,190.42605360003654,190.42605360003654,190.9256165000843,190.90945880010258,190.91000410006382,190.9256165000843,191.07556840009056,191.27524930005893,191.27524930005893,191.51022380008362,space,0,0.2226246000500396,None,191.5142018001061,192.0246649000328,193.02387380006257,193.00806440005545,,,,,,,,,,,,,,,,,001,002,2025-05-01_23h37.17.735,Cued GoNogo Task,2024.2.4,60.19491112074511,2025-05-01 23h37.26.613787 +0200,
block/CondBlock1.xlsx,You are about to start a block of type 1 trials.,49,49,0,Go,Go,0.12,0.05,0.2,space,blue,horizontal,space,0.8306701000547037,None,space,1,0.43059140001423657,None,,,,0,0,0,0,0,49,49,49,193.02387380006257,,,,,,,,,,,,,,,,193.00835770007689,193.02387380006257,193.7232387000695,193.7232387000695,194.22290090005845,194.20725180010777,194.20804380008485,194.22290090005845,194.35604460001923,194.53927350009326,194.53927350009326,194.97347630001605,space,1,0.43059140001423657,None,194.97682530002203,195.48854470008519,196.48763980006333,196.47172050003428,,,,,,,,,,,,,,,,,001,002,2025-05-01_23h37.17.735,Cued GoNogo Task,2024.2.4,60.19491112074511,2025-05-01 23h37.26.613787 +0200,
block/CondBlock1.xlsx,You are about to start a block of type 1 trials.,50,50,0,Go,Go,0.22,0.2,0.05,space,green,vertical,space,0.8306701000547037,None,space,1,0.259170199977234,None,,,,0,0,0,0,0,50,50,50,196.48763980006333,,,,,,,,,,,,,,,,196.47198440006468,196.48763980006333,197.1872780000558,197.1872780000558,197.6866390000796,197.67060250008944,197.67118070006836,197.6866390000796,197.9196603000164,198.10291810007766,198.10291810007766,198.37095620005857,space,1,0.259170199977234,None,198.37574909999967,198.88561370002571,199.88464540010318,199.869352000067,,,,,,,,,,,,,,,,,001,002,2025-05-01_23h37.17.735,Cued GoNogo Task,2024.2.4,60.19491112074511,2025-05-01 23h37.26.613787 +0200,
block/CondBlock1.xlsx,You are about to start a block of type 1 trials.,51,51,0,Go,Go,0.28,0.05,0.2,space,green,horizontal,space,0.8306701000547037,None,space,1,0.2993203999940306,None,,,,0,0,0,0,0,51,51,51,199.88464540010318,,,,,,,,,,,,,,,,199.8697114000097,199.88464540010318,200.5842612000415,200.5842612000415,201.0839188999962,201.06837600003928,201.06934580008965,201.0839188999962,201.36721090006176,201.55012740008533,201.55012740008533,201.85181330004707,space,1,0.2993203999940306,None,201.8555448000552,202.36615680006798,203.36536330007948,203.34910650004167,,,,,,,,,,,,,,,,,001,002,2025-05-01_23h37.17.735,Cued GoNogo Task,2024.2.4,60.19491112074511,2025-05-01 23h37.26.613787 +0200,
block/CondBlock1.xlsx,You are about to start a block of type 1 trials.,52,52,0,Go,Go,0.23,0.2,0.05,space,green,vertical,space,0.8306701000547037,None,space,1,0.23585419997107238,None,,,,0,0,0,0,0,52,52,52,203.36536330007948,,,,,,,,,,,,,,,,203.349353000056,203.36536330007948,204.0649154999992,204.0649154999992,204.564418700058,204.54847310006153,204.54918110009748,204.564418700058,204.7974247999955,204.99732150009368,204.99732150009368,205.24867270002142,space,1,0.23585419997107238,None,205.25231470004655,205.7633482000092,206.7625193001004,206.7465737001039,,,,,,,,,,,,,,,,,001,002,2025-05-01_23h37.17.735,Cued GoNogo Task,2024.2.4,60.19491112074511,2025-05-01 23h37.26.613787 +0200,
block/CondBlock1.xlsx,You are about to start a block of type 1 trials.,53,53,0,Go,Go,0.22,0.05,0.2,space,green,horizontal,space,0.8306701000547037,None,space,1,0.2565660000545904,None,,,,0,0,0,0,0,53,53,53,206.7625193001004,,,,,,,,,,,,,,,,206.7468332001008,206.7625193001004,207.46178930008318,207.46178930008318,207.96164310001768,207.94544260005932,207.94602590007707,207.96164310001768,208.19483240006957,208.377919999999,208.377919999999,208.64554330008104,space,1,0.2565660000545904,None,208.6494991000509,209.1605278000934,210.15983290004078,210.1439075000817,,,,,,,,,,,,,,,,,001,002,2025-05-01_23h37.17.735,Cued GoNogo Task,2024.2.4,60.19491112074511,2025-05-01 23h37.26.613787 +0200,
block/CondBlock1.xlsx,You are about to start a block of type 1 trials.,54,54,0,NoGo,NoGo,0.14,0.05,0.2,none,green,horizontal,space,0.8306701000547037,None,space,0,0.1978591000661254,None,,,,0,0,0,0,0,54,54,54,210.15983290004078,,,,,,,,,,,,,,,,210.14425010001287,210.15983290004078,210.85890120000113,210.85890120000113,211.35871570010204,211.34290899999905,211.34356960002333,211.35871570010204,211.50864520005416,211.69173520000186,211.69173520000186,211.89264289999846,space,0,0.1978591000661254,None,211.89746280002873,212.4079356000293,213.40706230001524,213.3910307000624,,,,,,,,,,,,,,,,,001,002,2025-05-01_23h37.17.735,Cued GoNogo Task,2024.2.4,60.19491112074511,2025-05-01 23h37.26.613787 +0200,
block/CondBlock1.xlsx,You are about to start a block of type 1 trials.,55,55,0,Go,Go,0.15,0.2,0.05,space,blue,vertical,space,0.8306701000547037,None,space,1,0.4371411999454722,None,,,,0,0,0,0,0,55,55,55,213.40706230001524,,,,,,,,,,,,,,,,213.39125870005228,213.40706230001524,214.10667170002125,214.10667170002125,214.60596100008115,214.59043040010147,214.5912564001046,214.60596100008115,214.75585509999655,214.95588030002546,214.95588030002546,215.4066776999971,space,1,0.4371411999454722,None,215.4106318000704,215.92167180008255,216.92093800008297,216.90481060009915,,,,,,,,,,,,,,,,,001,002,2025-05-01_23h37.17.735,Cued GoNogo Task,2024.2.4,60.19491112074511,2025-05-01 23h37.26.613787 +0200,
block/CondBlock1.xlsx,You are about to start a block of type 1 trials.,56,56,0,Go,Go,0.47,0.2,0.05,space,blue,vertical,space,0.8306701000547037,None,space,1,0.2958252999233082,None,,,,0,0,0,0,0,56,56,56,216.92093800008297,,,,,,,,,,,,,,,,216.90503490006085,216.92093800008297,217.62024610000663,217.62024610000663,218.11988220002968,218.1044802000979,218.10513280006126,218.11988220002968,218.6030649000313,218.78607980010565,218.78607980010565,219.0869693000568,space,1,0.2958252999233082,None,219.0909604000626,219.6020963001065,220.60105970001314,220.58581840002444,,,,,,,,,,,,,,,,,001,002,2025-05-01_23h37.17.735,Cued GoNogo Task,2024.2.4,60.19491112074511,2025-05-01 23h37.26.613787 +0200,
block/CondBlock1.xlsx,You are about to start a block of type 1 trials.,57,57,0,NoGo,NoGo,0.42,0.2,0.05,none,green,vertical,space,0.8306701000547037,None,space,0,0.2168495999649167,None,,,,0,0,0,0,0,57,57,57,220.60105970001314,,,,,,,,,,,,,,,,220.58619190007448,220.60105970001314,221.30074060009792,221.30074060009792,221.80018320004456,221.78417920006905,221.78485140006524,221.80018320004456,222.23301570001058,222.4163807000732,222.4163807000732,222.63540400005877,space,0,0.2168495999649167,None,222.64112260006368,223.14891830005217,224.14825480000582,224.13262740010396,,,,,,,,,,,,,,,,,001,002,2025-05-01_23h37.17.735,Cued GoNogo Task,2024.2.4,60.19491112074511,2025-05-01 23h37.26.613787 +0200,
block/CondBlock1.xlsx,You are about to start a block of type 1 trials.,58,58,0,Go,Go,0.22,0.05,0.2,space,green,horizontal,space,0.8306701000547037,None,space,1,0.33491269999649376,None,,,,0,0,0,0,0,58,58,58,224.14825480000582,,,,,,,,,,,,,,,,224.13289990008343,224.14825480000582,224.84763620002195,224.84763620002195,225.34731310000643,225.33131730009336,225.3319089000579,225.34731310000643,225.58047540008556,225.76355710008647,225.76355710008647,226.1147604000289,space,1,0.33491269999649376,None,226.1183438000735,226.62969130009878,227.6287086000666,227.61288500006776,,,,,,,,,,,,,,,,,001,002,2025-05-01_23h37.17.735,Cued GoNogo Task,2024.2.4,60.19491112074511,2025-05-01 23h37.26.613787 +0200,
block/CondBlock1.xlsx,You are about to start a block of type 1 trials.,59,59,0,Go,Go,0.3,0.2,0.05,space,blue,vertical,space,0.8306701000547037,None,space,1,0.24211910006124526,None,,,,0,0,0,0,0,59,59,59,227.6287086000666,,,,,,,,,,,,,,,,227.61316710000392,227.6287086000666,228.3281369000906,228.3281369000906,228.82772520009894,228.8117549000308,228.8123435000889,228.82772520009894,229.1276654000394,229.32729470008053,229.32729470008053,229.57821470010094,space,1,0.24211910006124526,None,229.58192330005113,230.0934856000822,,231.0927811000729,,,,,,,,,,,,,,,,,001,002,2025-05-01_23h37.17.735,Cued GoNogo Task,2024.2.4,60.19491112074511,2025-05-01 23h37.26.613787 +0200,
block/CondBlock1.xlsx,You are about to start a block of type 1 trials.,60,60,0,NoGo,NoGo,0.24,0.2,0.05,none,blue,vertical,space,0.8306701000547037,None,None,1,,,,,,0,0,0,0,0,60,60,60,231.10916840005666,,,,,,,,,,,,,,,,231.09311370004434,231.10916840005666,231.79203590005636,231.80867749999743,232.29158750001807,232.2753464000998,232.2758046000963,232.29158750001807,232.5414586000843,232.72465290001128,232.72465290001128,233.20824659999926,None,1,,,233.21088930009864,233.72365540009923,234.72285720007494,234.70736730005592,233.2240958000766,233.2240958000766,,,,,,,,,,,,,,,001,002,2025-05-01_23h37.17.735,Cued GoNogo Task,2024.2.4,60.19491112074511,2025-05-01 23h37.26.613787 +0200,
block/CondBlock1.xlsx,You are about to start a block of type 1 trials.,61,61,0,NoGo,NoGo,0.1,0.2,0.05,none,green,vertical,space,0.8306701000547037,None,None,1,,,,,,0,0,0,0,0,61,61,61,234.72285720007494,,,,,,,,,,,,,,,,234.70774410001468,234.72285720007494,235.42236379999667,235.42236379999667,235.92195240000729,235.90600340010133,235.90667300007772,235.92195240000729,236.02176310005598,236.2216175000649,236.2216175000649,236.70534700003918,None,1,,,236.70581410010345,237.22133359999862,,238.2199099001009,236.7212902000174,236.7212902000174,,,,,,,,,,,,,,,001,002,2025-05-01_23h37.17.735,Cued GoNogo Task,2024.2.4,60.19491112074511,2025-05-01 23h37.26.613787 +0200,
block/CondBlock1.xlsx,You are about to start a block of type 1 trials.,62,62,0,Go,Go,0.45,0.05,0.2,space,blue,horizontal,space,0.8306701000547037,None,space,1,0.2453195999842137,None,,,,0,0,0,0,0,62,62,62,238.23635210003704,,,,,,,,,,,,,,,,238.22014500002842,238.23635210003704,238.91950030007865,238.93603310000617,239.41902780008968,239.40303960000165,239.40390430006664,239.41902780008968,239.8685952000087,240.06847520009615,240.06847520009615,240.31960950000212,space,1,0.2453195999842137,None,240.32437640009448,240.8344480000669,241.8336209000554,241.8179346000543,,,,,,,,,,,,,,,,,001,002,2025-05-01_23h37.17.735,Cued GoNogo Task,2024.2.4,60.19491112074511,2025-05-01 23h37.26.613787 +0200,
block/CondBlock1.xlsx,You are about to start a block of type 1 trials.,63,63,0,Go,Go,0.1,0.05,0.2,space,green,horizontal,space,0.8306701000547037,None,space,1,0.3010577999521047,None,,,,0,0,0,0,0,63,63,63,241.8336209000554,,,,,,,,,,,,,,,,241.81824789999519,241.8336209000554,242.53312510007527,242.53312510007527,243.03264310001396,243.01655240007676,243.0170172000071,243.03264310001396,243.13274690008257,243.33267850009724,243.33267850009724,243.65021330001764,space,1,0.3010577999521047,None,243.6550617000321,244.16504610003904,245.16416710009798,245.14855820010416,,,,,,,,,,,,,,,,,001,002,2025-05-01_23h37.17.735,Cued GoNogo Task,2024.2.4,60.19491112074511,2025-05-01 23h37.26.613787 +0200,
block/CondBlock1.xlsx,You are about to start a block of type 1 trials.,64,64,0,Go,Go,0.19,0.05,0.2,space,blue,horizontal,space,0.8306701000547037,None,space,1,0.3109911000356078,None,,,,0,0,0,0,0,64,64,64,245.16416710009798,,,,,,,,,,,,,,,,245.14898170006927,245.16416710009798,245.8635643000016,245.8635643000016,246.3633974000113,246.347322500078,246.34793820010964,246.3633974000113,246.56310610007495,246.7463114000857,246.7463114000857,247.06387240008917,space,1,0.3109911000356078,None,247.06788270000834,247.57892780005932,248.5784163000062,248.56237390008755,,,,,,,,,,,,,,,,,001,002,2025-05-01_23h37.17.735,Cued GoNogo Task,2024.2.4,60.19491112074511,2025-05-01 23h37.26.613787 +0200,
block/CondBlock1.xlsx,You are about to start a block of type 1 trials.,65,65,0,Go,Go,0.21,0.2,0.05,space,blue,vertical,space,0.8306701000547037,None,space,1,0.30465449998155236,None,,,,0,0,0,0,0,65,65,65,248.5784163000062,,,,,,,,,,,,,,,,248.56273790006526,248.5784163000062,249.27754590008408,249.27754590008408,249.77711590006948,249.76109700009692,249.76179050002247,249.77711590006948,249.9935008001048,250.17667549999896,250.17667549999896,250.4948615001049,space,1,0.30465449998155236,None,250.49975640000775,251.00970620010048,,252.00880050007254,,,,,,,,,,,,,,,,,001,002,2025-05-01_23h37.17.735,Cued GoNogo Task,2024.2.4,60.19491112074511,2025-05-01 23h37.26.613787 +0200,
block/CondBlock1.xlsx,You are about to start a block of type 1 trials.,66,66,0,Go,Go,0.18,0.05,0.2,space,blue,horizontal,space,0.8306701000547037,None,space,1,0.283663000096567,None,,,,0,0,0,0,0,66,66,66,252.02523430006113,,,,,,,,,,,,,,,,252.00930400006473,252.02523430006113,252.70811910007615,252.72462110000197,253.20755710010417,253.19167309999466,253.19227450003382,253.20755710010417,253.39099270000588,253.57391620008275,253.57391620008275,253.86003020009957,space,1,0.283663000096567,None,253.86437830002978,254.3733563000569,255.3724278000882,255.35712660010904,,,,,,,,,,,,,,,,,001,002,2025-05-01_23h37.17.735,Cued GoNogo Task,2024.2.4,60.19491112074511,2025-05-01 23h37.26.613787 +0200,
block/CondBlock1.xlsx,You are about to start a block of type 1 trials.,67,67,0,Go,Go,0.29,0.2,0.05,space,green,vertical,space,0.8306701000547037,None,space,1,0.29053349990863353,None,,,,0,0,0,0,0,67,67,67,255.3724278000882,,,,,,,,,,,,,,,,255.35757980006747,255.3724278000882,256.0720302000409,256.0720302000409,256.571558500058,256.55557280010544,256.5561778000556,256.571558500058,256.87146030005533,257.0545953999972,257.0545953999972,257.35523970006034,space,1,0.29053349990863353,None,257.3588915000437,257.87052370002493,258.8696288000792,258.85368140006904,,,,,,,,,,,,,,,,,001,002,2025-05-01_23h37.17.735,Cued GoNogo Task,2024.2.4,60.19491112074511,2025-05-01 23h37.26.613787 +0200,
block/CondBlock1.xlsx,You are about to start a block of type 1 trials.,68,68,0,NoGo,NoGo,0.24,0.2,0.05,none,blue,vertical,space,0.8306701000547037,None,space,0,0.32449480006471276,None,,,,0,0,0,0,0,68,68,68,258.8696288000792,,,,,,,,,,,,,,,,258.85390380001627,258.8696288000792,259.5690181000391,259.5690181000391,260.0687327000778,260.05269470007624,260.0533259001095,260.0687327000778,260.3184743000893,260.50185760005843,260.50185760005843,260.8354958000127,space,0,0.32449480006471276,None,260.83943870000076,261.35092900006566,262.3501527000917,262.3340395000996,,,,,,,,,,,,,,,,,001,002,2025-05-01_23h37.17.735,Cued GoNogo Task,2024.2.4,60.19491112074511,2025-05-01 23h37.26.613787 +0200,
block/CondBlock1.xlsx,You are about to start a block of type 1 trials.,69,69,0,Go,Go,0.27,0.05,0.2,space,green,horizontal,space,0.8306701000547037,None,space,1,0.29072010004892945,None,,,,0,0,0,0,0,69,69,69,262.3501527000917,,,,,,,,,,,,,,,,262.3343200000236,262.3501527000917,263.04960240004584,263.04960240004584,263.5491490000859,263.5330632000696,263.5336795001058,263.5491490000859,263.83230720006395,264.01542410010006,264.01542410010006,264.3161708000116,space,1,0.29072010004892945,None,264.32038670009933,264.8315671000164,265.83055490010884,265.81470810004976,,,,,,,,,,,,,,,,,001,002,2025-05-01_23h37.17.735,Cued GoNogo Task,2024.2.4,60.19491112074511,2025-05-01 23h37.26.613787 +0200,
block/CondBlock1.xlsx,You are about to start a block of type 1 trials.,70,70,0,Go,Go,0.25,0.2,0.05,space,green,vertical,space,0.8306701000547037,None,None,0,,,,,,0,0,0,0,0,70,70,70,265.83055490010884,,,,,,,,,,,,,,,,265.8149556000717,265.83055490010884,266.5299245000351,266.5299245000351,267.0296633000253,267.0135565000819,267.0141663000686,267.0296633000253,267.27945380005985,267.47913260001224,267.47913260001224,267.96278699999675,None,0,,,267.96522240003105,268.47846920008305,269.47771190002095,269.46175420004874,267.97869350004476,267.97869350004476,,,,,,,,,,,,,,,001,002,2025-05-01_23h37.17.735,Cued GoNogo Task,2024.2.4,60.19491112074511,2025-05-01 23h37.26.613787 +0200,
block/CondBlock1.xlsx,You are about to start a block of type 1 trials.,71,71,0,Go,Go,0.28,0.05,0.2,space,green,horizontal,space,0.8306701000547037,None,space,1,0.29070749995298684,None,,,,0,0,0,0,0,71,71,71,269.47771190002095,,,,,,,,,,,,,,,,269.4620410000207,269.47771190002095,270.1771460000891,270.1771460000891,270.67668640008196,270.6604378001066,270.66094390000217,270.67668640008196,270.95968230010476,271.1431391000515,271.1431391000515,271.44366200000513,space,1,0.29070749995298684,None,271.44736900005955,271.95894310006406,272.9582048000302,272.94223040004726,,,,,,,,,,,,,,,,,001,002,2025-05-01_23h37.17.735,Cued GoNogo Task,2024.2.4,60.19491112074511,2025-05-01 23h37.26.613787 +0200,
block/CondBlock1.xlsx,You are about to start a block of type 1 trials.,72,72,0,Go,Go,0.14,0.05,0.2,space,blue,horizontal,space,0.8306701000547037,None,space,1,0.18407480011228472,None,,,,0,0,0,0,0,72,72,72,272.9582048000302,,,,,,,,,,,,,,,,272.9425411000848,272.9582048000302,273.6573884000536,273.6573884000536,274.15727350011,274.1411432001041,274.1417800000636,274.15727350011,274.3072696001036,274.49017270002514,274.49017270002514,274.69119170005433,space,1,0.18407480011228472,None,274.6955682000844,275.2061668999959,276.2054214000236,276.1893859000411,,,,,,,,,,,,,,,,,001,002,2025-05-01_23h37.17.735,Cued GoNogo Task,2024.2.4,60.19491112074511,2025-05-01 23h37.26.613787 +0200,
block/CondBlock1.xlsx,You are about to start a block of type 1 trials.,73,73,0,Go,Go,0.11,0.05,0.2,space,blue,horizontal,space,0.8306701000547037,None,space,1,0.14666159998159856,None,,,,0,0,0,0,0,73,73,73,276.2054214000236,,,,,,,,,,,,,,,,276.1896417000098,276.2054214000236,276.90492000000086,276.90492000000086,277.404400600004,277.3883660000283,277.3888959001051,277.404400600004,277.5210500000976,277.7039111000486,277.7039111000486,277.85514580004383,space,1,0.14666159998159856,None,277.85879920003936,278.37036590010393,279.3694499999983,279.3535410000477,,,,,,,,,,,,,,,,,001,002,2025-05-01_23h37.17.735,Cued GoNogo Task,2024.2.4,60.19491112074511,2025-05-01 23h37.26.613787 +0200,
block/CondBlock1.xlsx,You are about to start a block of type 1 trials.,74,74,0,Go,Go,0.22,0.2,0.05,space,blue,vertical,space,0.8306701000547037,None,space,1,0.2970707999775186,None,,,,0,0,0,0,0,74,74,74,279.3694499999983,,,,,,,,,,,,,,,,279.3538072000956,279.3694499999983,280.0688466000138,280.0688466000138,280.56826530001126,280.55266100005247,280.55324010003824,280.56826530001126,280.8016058000503,280.98489130008966,280.98489130008966,281.28633210004773,space,1,0.2970707999775186,None,281.2922391000902,281.80077650002204,282.7999404000584,282.7842660000315,,,,,,,,,,,,,,,,,001,002,2025-05-01_23h37.17.735,Cued GoNogo Task,2024.2.4,60.19491112074511,2025-05-01 23h37.26.613787 +0200,
block/CondBlock1.xlsx,You are about to start a block of type 1 trials.,75,75,0,Go,Go,0.26,0.05,0.2,space,blue,horizontal,space,0.8306701000547037,None,space,1,0.09674549999181181,None,,,,0,0,0,0,0,75,75,75,282.7999404000584,,,,,,,,,,,,,,,,282.7846165000228,282.7999404000584,283.49940290011,283.49940290011,283.9990686000092,283.98294180002995,283.98348200006876,283.9990686000092,284.2654683000874,284.4485526001081,284.4485526001081,284.54961170000024,space,1,0.09674549999181181,None,284.553629900096,285.06479140010197,286.06398090010043,286.0481979000615,,,,,,,,,,,,,,,,,001,002,2025-05-01_23h37.17.735,Cued GoNogo Task,2024.2.4,60.19491112074511,2025-05-01 23h37.26.613787 +0200,
block/CondBlock1.xlsx,You are about to start a block of type 1 trials.,76,76,0,Go,Go,0.14,0.2,0.05,space,green,vertical,space,0.8306701000547037,None,space,1,0.21494540001731366,None,,,,0,0,0,0,0,76,76,76,286.06398090010043,,,,,,,,,,,,,,,,286.0484864000464,286.06398090010043,286.76333960006014,286.76333960006014,287.26299030007794,287.2467370000668,287.2473168000579,287.26299030007794,287.41286350006703,287.596087400103,287.596087400103,287.8142761000199,space,1,0.21494540001731366,None,287.81834220001474,288.32876340008806,289.3279749000212,289.3119078000309,,,,,,,,,,,,,,,,,001,002,2025-05-01_23h37.17.735,Cued GoNogo Task,2024.2.4,60.19491112074511,2025-05-01 23h37.26.613787 +0200,
block/CondBlock1.xlsx,You are about to start a block of type 1 trials.,77,77,0,Go,Go,0.18,0.05,0.2,space,green,horizontal,space,0.8306701000547037,None,space,1,0.17168150003999472,None,,,,0,0,0,0,0,77,77,77,289.3279749000212,,,,,,,,,,,,,,,,289.3121477999957,289.3279749000212,290.0273688000161,290.0273688000161,290.52703470003325,290.5109993000515,290.51156340003945,290.52703470003325,290.7101543000899,290.90999830001965,290.90999830001965,291.0946234000148,space,1,0.17168150003999472,None,291.09848250006326,291.60934900003485,292.60857440007385,292.5927185000619,,,,,,,,,,,,,,,,,001,002,2025-05-01_23h37.17.735,Cued GoNogo Task,2024.2.4,60.19491112074511,2025-05-01 23h37.26.613787 +0200,
block/CondBlock1.xlsx,You are about to start a block of type 1 trials.,78,78,0,NoGo,NoGo,0.27,0.05,0.2,none,blue,horizontal,space,0.8306701000547037,None,space,0,0.21670570003334433,None,,,,0,0,0,0,0,78,78,78,292.60857440007385,,,,,,,,,,,,,,,,292.59298920002766,292.60857440007385,293.30801930010784,293.30801930010784,293.80766920000315,293.791751800105,293.79248590010684,293.80766920000315,294.0905995001085,294.27403500000946,294.27403500000946,294.49306970008183,space,0,0.21670570003334433,None,294.4985317999963,295.00660980003886,296.0058793000644,295.99014140001964,,,,,,,,,,,,,,,,,001,002,2025-05-01_23h37.17.735,Cued GoNogo Task,2024.2.4,60.19491112074511,2025-05-01 23h37.26.613787 +0200,
block/CondBlock1.xlsx,You are about to start a block of type 1 trials.,79,79,0,NoGo,NoGo,0.26,0.2,0.05,none,blue,vertical,space,0.8306701000547037,None,space,0,0.2597198999719694,None,,,,0,0,0,0,0,79,79,79,296.0058793000644,,,,,,,,,,,,,,,,295.9904600000009,296.0058793000644,296.7052334001055,296.7052334001055,297.20488239999395,297.18881570000667,297.18944860005286,297.20488239999395,297.47137470007874,297.6543875000207,297.6543875000207,297.92198640003335,space,0,0.2597198999719694,None,297.92237610009033,298.4372227001004,299.4363231000025,299.42072410008404,,,,,,,,,,,,,,,,,001,002,2025-05-01_23h37.17.735,Cued GoNogo Task,2024.2.4,60.19491112074511,2025-05-01 23h37.26.613787 +0200,
block/CondBlock1.xlsx,You are about to start a block of type 1 trials.,80,80,0,Go,Go,0.22,0.2,0.05,space,green,vertical,space,0.8306701000547037,None,space,1,0.40654750005342066,None,,,,0,0,0,0,0,80,80,80,299.4363231000025,,,,,,,,,,,,,,,,299.4210171001032,299.4363231000025,300.1357416000683,300.1357416000683,300.6353465000866,300.61982200003695,300.6204676000634,300.6353465000866,300.868349700002,301.0522537000943,301.0522537000943,301.46888749999925,space,1,0.40654750005342066,None,301.4727285000263,301.98431850003544,,302.98330740001984,,,,,,,,,,,,,,,,,001,002,2025-05-01_23h37.17.735,Cued GoNogo Task,2024.2.4,60.19491112074511,2025-05-01 23h37.26.613787 +0200,
block/CondBlock1.xlsx,You are about to start a block of type 1 trials.,81,81,0,Go,Go,0.5,0.2,0.05,space,green,vertical,space,0.8306701000547037,None,space,1,0.3440823999699205,None,,,,0,0,0,0,0,81,81,81,302.99990360008087,,,,,,,,,,,,,,,,302.9835807000054,302.99990360008087,303.6828658001032,303.69939710001927,304.182303700014,304.166583500104,304.16733630001545,304.182303700014,304.68196210009046,304.8817308000289,304.8817308000289,305.2326377000427,space,1,0.3440823999699205,None,305.23759890010115,305.7477840000065,306.7469017000403,306.73121970007196,,,,,,,,,,,,,,,,,001,002,2025-05-01_23h37.17.735,Cued GoNogo Task,2024.2.4,60.19491112074511,2025-05-01 23h37.26.613787 +0200,
block/CondBlock1.xlsx,You are about to start a block of type 1 trials.,82,82,0,Go,Go,0.43,0.05,0.2,space,green,horizontal,space,0.8306701000547037,None,space,1,0.25619410001672804,None,,,,0,0,0,0,0,82,82,82,306.7469017000403,,,,,,,,,,,,,,,,306.73151520011015,306.7469017000403,307.44650100008585,307.44650100008585,307.9460722000804,307.9301247000694,307.9307529000798,307.9460722000804,308.37891730002593,308.56234470009804,308.56234470009804,308.830226900056,space,1,0.25619410001672804,None,308.83532500010915,309.34460910002235,310.3440204000799,310.32817590003833,,,,,,,,,,,,,,,,,001,002,2025-05-01_23h37.17.735,Cued GoNogo Task,2024.2.4,60.19491112074511,2025-05-01 23h37.26.613787 +0200,
block/CondBlock1.xlsx,You are about to start a block of type 1 trials.,83,83,0,Go,Go,0.25,0.2,0.05,space,green,vertical,space,0.8306701000547037,None,space,1,0.20857410004828125,None,,,,0,0,0,0,0,83,83,83,310.3440204000799,,,,,,,,,,,,,,,,310.32848820008803,310.3440204000799,311.04356110002846,311.04356110002846,311.54301910009235,311.5272423001006,311.5280354000861,311.54301910009235,311.7928396000061,311.9926154999994,311.9926154999994,312.2099420001032,space,1,0.20857410004828125,None,312.21468140010256,312.72553660010453,313.72479480004404,313.7086806000443,,,,,,,,,,,,,,,,,001,002,2025-05-01_23h37.17.735,Cued GoNogo Task,2024.2.4,60.19491112074511,2025-05-01 23h37.26.613787 +0200,
block/CondBlock1.xlsx,You are about to start a block of type 1 trials.,84,84,0,NoGo,NoGo,0.14,0.2,0.05,none,green,vertical,space,0.8306701000547037,None,space,0,0.2404818000504747,None,,,,0,0,0,0,0,84,84,84,313.72479480004404,,,,,,,,,,,,,,,,313.7089644999942,313.72479480004404,314.42382850009017,314.42382850009017,314.9235387000954,314.90759600000456,314.90825920004863,314.9235387000954,315.07347380009014,315.25672340008896,315.25672340008896,315.50728850008454,space,0,0.2404818000504747,None,315.5107713000616,316.0227579000639,317.0218225000426,317.00589630007744,,,,,,,,,,,,,,,,,001,002,2025-05-01_23h37.17.735,Cued GoNogo Task,2024.2.4,60.19491112074511,2025-05-01 23h37.26.613787 +0200,
block/CondBlock1.xlsx,You are about to start a block of type 1 trials.,85,85,0,Go,Go,0.2,0.05,0.2,space,blue,horizontal,space,0.8306701000547037,None,space,1,0.23782510007731616,None,,,,0,0,0,0,0,85,85,85,317.0218225000426,,,,,,,,,,,,,,,,317.0061457999982,317.0218225000426,317.72125689999666,317.72125689999666,318.22096170007717,318.2053539000917,318.2061829000013,318.22096170007717,318.4204982999945,318.62054700008593,318.62054700008593,318.8719360000687,space,1,0.23782510007731616,None,318.8760375001002,319.3866244000383,320.3856538000982,320.36974019999616,,,,,,,,,,,,,,,,,001,002,2025-05-01_23h37.17.735,Cued GoNogo Task,2024.2.4,60.19491112074511,2025-05-01 23h37.26.613787 +0200,
block/CondBlock1.xlsx,You are about to start a block of type 1 trials.,86,86,0,Go,Go,0.16,0.2,0.05,space,blue,vertical,space,0.8306701000547037,None,space,1,0.41122489992994815,None,,,,0,0,0,0,0,86,86,86,320.3856538000982,,,,,,,,,,,,,,,,320.3699081999948,320.3856538000982,321.08517750003375,321.08517750003375,321.58481060003396,321.5686621000059,321.56919470010325,321.58481060003396,321.7512942000758,321.93450720002875,321.93450720002875,322.3524373000255,space,1,0.41122489992994815,None,322.3565945000155,322.86706170008983,323.86614010005724,323.85018470010255,,,,,,,,,,,,,,,,,001,002,2025-05-01_23h37.17.735,Cued GoNogo Task,2024.2.4,60.19491112074511,2025-05-01 23h37.26.613787 +0200,
block/CondBlock1.xlsx,You are about to start a block of type 1 trials.,87,87,0,Go,Go,0.41,0.2,0.05,space,green,vertical,space,0.8306701000547037,None,space,1,0.44157279992941767,None,,,,0,0,0,0,0,87,87,87,323.86614010005724,,,,,,,,,,,,,,,,323.8504246000666,323.86614010005724,324.5656081000343,324.5656081000343,325.0652012000792,325.04955550003797,325.05016230000183,325.0652012000792,325.48172270006035,325.6648002000293,325.6648002000293,326.11536749999505,space,1,0.44157279992941767,None,326.11906910000835,326.63072500005364,327.6298763999948,327.61375850008335,,,,,,,,,,,,,,,,,001,002,2025-05-01_23h37.17.735,Cued GoNogo Task,2024.2.4,60.19491112074511,2025-05-01 23h37.26.613787 +0200,
block/CondBlock1.xlsx,You are about to start a block of type 1 trials.,88,88,0,NoGo,NoGo,0.15,0.2,0.05,none,green,vertical,space,0.8306701000547037,None,space,0,0.19883370003663003,None,,,,0,0,0,0,0,88,88,88,327.6298763999948,,,,,,,,,,,,,,,,327.6140169000719,327.6298763999948,328.32935800007544,328.32935800007544,328.82873680000193,328.8131789000472,328.8140159000177,328.82873680000193,328.9786688000895,329.1785484000575,329.1785484000575,329.38073070009705,space,0,0.19883370003663003,None,329.3861866000807,329.8948192000389,330.8936651000986,330.8782607000321,,,,,,,,,,,,,,,,,001,002,2025-05-01_23h37.17.735,Cued GoNogo Task,2024.2.4,60.19491112074511,2025-05-01 23h37.26.613787 +0200,
block/CondBlock1.xlsx,You are about to start a block of type 1 trials.,89,89,0,Go,Go,0.24,0.05,0.2,space,blue,horizontal,space,0.8306701000547037,None,space,1,0.30002939992118627,None,,,,0,0,0,0,0,89,89,89,330.8936651000986,,,,,,,,,,,,,,,,330.8785554000642,330.8936651000986,331.59316780010704,331.59316780010704,332.09273670008406,332.0769163001096,332.07762300001923,332.09273670008406,332.34273280005436,332.5258346000919,332.5258346000919,332.82864050008357,space,1,0.30002939992118627,None,332.8335519999964,333.34168760001194,334.34118099999614,334.3251716000959,,,,,,,,,,,,,,,,,001,002,2025-05-01_23h37.17.735,Cued GoNogo Task,2024.2.4,60.19491112074511,2025-05-01 23h37.26.613787 +0200,
block/CondBlock1.xlsx,You are about to start a block of type 1 trials.,90,90,0,Go,Go,0.25,0.2,0.05,space,blue,vertical,space,0.8306701000547037,None,None,0,,,,,,0,0,0,0,0,90,90,90,334.34118099999614,,,,,,,,,,,,,,,,334.32554300001357,334.34118099999614,335.0405106000835,335.0405106000835,335.53997880010866,335.52435380010866,335.5250920000253,335.53997880010866,335.7898677000776,335.98979900009,335.98979900009,336.4731758000562,None,0,,,336.47597480006516,336.9887545000529,337.98783330002334,337.9724617000902,336.4890789000783,336.4890789000783,,,,,,,,,,,,,,,001,002,2025-05-01_23h37.17.735,Cued GoNogo Task,2024.2.4,60.19491112074511,2025-05-01 23h37.26.613787 +0200,
block/CondBlock1.xlsx,You are about to start a block of type 1 trials.,91,91,0,Go,Go,0.26,0.05,0.2,space,green,horizontal,space,0.8306701000547037,None,space,1,0.43031550000887364,None,,,,0,0,0,0,0,91,91,91,337.98783330002334,,,,,,,,,,,,,,,,337.97277150000446,337.98783330002334,338.6875826000469,338.6875826000469,339.18720110005233,339.1710822000168,339.17184950003866,339.18720110005233,339.45359090005513,339.63662130001467,339.63662130001467,340.07086610002443,space,1,0.43031550000887364,None,340.0755576000083,340.58574230002705,341.58651700010523,341.57102440006565,,,,,,,,,,,,,,,,,001,002,2025-05-01_23h37.17.735,Cued GoNogo Task,2024.2.4,60.19491112074511,2025-05-01 23h37.26.613787 +0200,
block/CondBlock1.xlsx,You are about to start a block of type 1 trials.,92,92,0,NoGo,NoGo,0.44,0.2,0.05,none,blue,vertical,space,0.8306701000547037,None,None,1,,,,,,0,0,0,0,0,92,92,92,341.58651700010523,,,,,,,,,,,,,,,,341.57120910007507,341.58651700010523,342.2859459000174,342.2859459000174,342.7858815001091,342.76961990003474,342.7700997000793,342.7858815001091,343.2366355000995,343.41864810010884,343.41864810010884,343.9019567000214,None,1,,,343.90382020000834,344.41707220009994,,345.69888130004983,343.91790810006205,343.91790810006205,,,,,,,,,,,,,,,001,002,2025-05-01_23h37.17.735,Cued GoNogo Task,2024.2.4,60.19491112074511,2025-05-01 23h37.26.613787 +0200,
block/CondBlock1.xlsx,You are about to start a block of type 1 trials.,93,93,0,Go,Go,0.13,0.2,0.05,space,green,vertical,space,0.8306701000547037,None,space,1,0.4314836000557989,None,,,,0,0,0,0,0,93,93,93,345.73100970010273,,,,,,,,,,,,,,,,345.69912200002,345.73100970010273,346.11441050004214,346.43101699999534,346.6140321000712,346.5980056000408,346.5984086000826,346.6140321000712,346.7473568000132,346.94708120008,346.94708120008,347.38185460004024,space,1,0.4314836000557989,None,347.3857819000259,347.8965780000435,348.8957750000991,348.8799613000592,,,,,,,,,,,,,,,,,001,002,2025-05-01_23h37.17.735,Cued GoNogo Task,2024.2.4,60.19491112074511,2025-05-01 23h37.26.613787 +0200,
block/CondBlock1.xlsx,You are about to start a block of type 1 trials.,94,94,0,Go,Go,0.44,0.05,0.2,space,blue,horizontal,space,0.8306701000547037,None,space,1,0.09855630004312843,None,,,,0,0,0,0,0,94,94,94,348.8957750000991,,,,,,,,,,,,,,,,348.8803164000856,348.8957750000991,349.59483940002974,349.59483940002974,350.0946261000354,350.07870930002537,350.0796215001028,350.0946261000354,350.5443309000693,350.7275328000542,350.7275328000542,350.8283472000621,space,1,0.09855630004312843,None,350.83255530009046,351.34368650009856,352.34282550006174,352.32674510008655,,,,,,,,,,,,,,,,,001,002,2025-05-01_23h37.17.735,Cued GoNogo Task,2024.2.4,60.19491112074511,2025-05-01 23h37.26.613787 +0200,
block/CondBlock1.xlsx,You are about to start a block of type 1 trials.,95,95,0,Go,Go,0.15,0.2,0.05,space,green,vertical,space,0.8306701000547037,None,space,1,0.1980426999507472,None,,,,0,0,0,0,0,95,95,95,352.34282550006174,,,,,,,,,,,,,,,,352.3269732000772,352.34282550006174,353.0423672000179,353.0423672000179,353.54200850008056,353.52609110006597,353.5268687000498,353.54200850008056,353.69142370007467,353.8915846000891,353.8915846000891,354.0928049000213,space,1,0.1980426999507472,None,354.0977481000591,354.60759430006146,,355.60687560006045,,,,,,,,,,,,,,,,,001,002,2025-05-01_23h37.17.735,Cued GoNogo Task,2024.2.4,60.19491112074511,2025-05-01 23h37.26.613787 +0200,
block/CondBlock1.xlsx,You are about to start a block of type 1 trials.,96,96,0,Go,Go,0.49,0.2,0.05,space,green,vertical,space,0.8306701000547037,None,space,1,0.37750159995630383,None,,,,0,0,0,0,0,96,96,96,355.6234831000911,,,,,,,,,,,,,,,,355.60724580008537,355.6234831000911,356.30622340005357,356.3229073000839,356.8056988000171,356.7898012000369,356.790445700055,356.8056988000171,357.3053796000313,357.4882833000738,357.4882833000738,357.872226000065,space,1,0.37750159995630383,None,357.87588960002176,358.38817190006375,,359.387145100045,,,,,,,,,,,,,,,,,001,002,2025-05-01_23h37.17.735,Cued GoNogo Task,2024.2.4,60.19491112074511,2025-05-01 23h37.26.613787 +0200,
block/CondBlock1.xlsx,You are about to start a block of type 1 trials.,97,97,0,Go,Go,0.11,0.2,0.05,space,blue,vertical,space,0.8306701000547037,None,space,1,0.2354605000000447,None,,,,0,0,0,0,0,97,97,97,359.4036229000194,,,,,,,,,,,,,,,,359.38744000007864,359.4036229000194,360.08640310005285,360.1029795000795,360.58622789999936,360.5699066000525,360.57033720007166,360.58622789999936,360.7024164000759,360.88581070001237,360.88581070001237,361.1368054000195,space,1,0.2354605000000447,None,361.1411702000769,361.65191960008815,362.6509647000348,362.635185000021,,,,,,,,,,,,,,,,,001,002,2025-05-01_23h37.17.735,Cued GoNogo Task,2024.2.4,60.19491112074511,2025-05-01 23h37.26.613787 +0200,
block/CondBlock1.xlsx,You are about to start a block of type 1 trials.,98,98,0,Go,Go,0.26,0.05,0.2,space,green,horizontal,space,0.8306701000547037,None,space,1,0.17391900008078665,None,,,,0,0,0,0,0,98,98,98,362.6509647000348,,,,,,,,,,,,,,,,362.63550360000227,362.6509647000348,363.350416900008,363.350416900008,363.8499554001028,363.83406470005866,363.83470140001737,363.8499554001028,364.1165386000648,364.2996126000071,364.2996126000071,364.48450920009054,space,1,0.17391900008078665,None,364.4891535000643,364.9989992000628,365.9981397000374,365.98287400009576,,,,,,,,,,,,,,,,,001,002,2025-05-01_23h37.17.735,Cued GoNogo Task,2024.2.4,60.19491112074511,2025-05-01 23h37.26.613787 +0200,
block/CondBlock1.xlsx,You are about to start a block of type 1 trials.,99,99,0,Go,Go,0.28,0.05,0.2,space,green,horizontal,space,0.8306701000547037,None,space,1,0.22624420002102852,None,,,,0,0,0,0,0,99,99,99,365.9981397000374,,,,,,,,,,,,,,,,365.98332130000927,365.9981397000374,366.6977516000625,366.6977516000625,367.1973208000418,367.18184650002513,367.1828406000277,367.1973208000418,367.48046400002204,367.6801708000712,367.6801708000712,367.91477260005195,space,1,0.22624420002102852,None,367.9185731000034,368.4296288000187,369.4324794000713,369.4131112000905,,,,,,,,,,,,,,,,,001,002,2025-05-01_23h37.17.735,Cued GoNogo Task,2024.2.4,60.19491112074511,2025-05-01 23h37.26.613787 +0200,
block/CondBlock1.xlsx,You are about to start a block of type 1 trials.,0,0,0,,,,,,,,,space,0.8306701000547037,None,,,,,space,255.8585825000191,None,0,0,0,0,,,,,,,,,,,,,,,,,,,,,,,,,,,,,,,,,,,,,,,,,,,369.43034580000676,369.4324794000713,369.4324794000713,625.3025295000989,space,255.8585825000191,None,,,,,,,,001,002,2025-05-01_23h37.17.735,Cued GoNogo Task,2024.2.4,60.19491112074511,2025-05-01 23h37.26.613787 +0200,
block/CondBlock2.xlsx,You are about to start a block of type 2 trials.,0,0,0,Go,Go,0.18,0.05,0.2,space,green,horizontal,space,1.0190172001020983,None,space,1,0.2615724001079798,None,,,,0,1,1,1,0,0,0,0,626.3785547000589,,,,,,,,,625.3061836000998,625.3182984000305,625.3182984000305,626.352027200046,space,1.0190172001020983,None,626.375821600086,626.3785547000589,627.0671301000984,627.0834559000796,627.5664949000347,627.5501703000627,627.5507607000181,627.5664949000347,627.7495652000653,627.9328178000869,627.9328178000869,628.2001871000975,space,1,0.2615724001079798,None,628.2036804000381,628.7154664000263,629.7147819000529,629.6984873000765,,,,,,,,,,,,,,,,,001,002,2025-05-01_23h37.17.735,Cued GoNogo Task,2024.2.4,60.19491112074511,2025-05-01 23h37.26.613787 +0200,
block/CondBlock2.xlsx,You are about to start a block of type 2 trials.,1,1,0,Go,Go,0.2,0.2,0.05,space,green,vertical,space,1.0190172001020983,None,space,1,0.2720802000258118,None,,,,0,1,1,1,0,1,1,1,629.7147819000529,,,,,,,,,,,,,,,,629.6987016000785,629.7147819000529,630.4139686000999,630.4139686000999,630.9135859000962,630.897713500075,630.8983324000146,630.9135859000962,631.1135249000508,631.3132530000294,631.3132530000294,631.597442700062,space,1,0.2720802000258118,None,631.6010823000688,632.1130174000282,633.1121385000879,633.0962151000276,,,,,,,,,,,,,,,,,001,002,2025-05-01_23h37.17.735,Cued GoNogo Task,2024.2.4,60.19491112074511,2025-05-01 23h37.26.613787 +0200,
block/CondBlock2.xlsx,You are about to start a block of type 2 trials.,2,2,0,Go,Go,0.22,0.05,0.2,space,blue,horizontal,space,1.0190172001020983,None,space,1,0.12278219999279827,None,,,,0,1,1,1,0,2,2,2,633.1121385000879,,,,,,,,,,,,,,,,633.0965315001085,633.1121385000879,633.8114112000912,633.8114112000912,634.3107772000367,634.2947639001068,634.2955105000874,634.3107772000367,634.5439811000833,634.7272584000602,634.7272584000602,634.8614157000557,space,1,0.12278219999279827,None,634.8645907000173,635.3766381000169,636.3757325001061,636.3597764000297,,,,,,,,,,,,,,,,,001,002,2025-05-01_23h37.17.735,Cued GoNogo Task,2024.2.4,60.19491112074511,2025-05-01 23h37.26.613787 +0200,
block/CondBlock2.xlsx,You are about to start a block of type 2 trials.,3,3,0,Go,Go,0.14,0.05,0.2,space,green,horizontal,space,1.0190172001020983,None,space,1,0.2383480001008138,None,,,,0,1,1,1,0,3,3,3,636.3757325001061,,,,,,,,,,,,,,,,636.3600209000288,636.3757325001061,637.0753191000549,637.0753191000549,637.5749070000602,637.5592387000797,637.5602392000146,637.5749070000602,637.7249338000547,637.9078113000141,637.9078113000141,638.1591211000923,space,1,0.2383480001008138,None,638.164064200013,638.6740524000488,639.6733155000256,639.6570336000295,,,,,,,,,,,,,,,,,001,002,2025-05-01_23h37.17.735,Cued GoNogo Task,2024.2.4,60.19491112074511,2025-05-01 23h37.26.613787 +0200,
block/CondBlock2.xlsx,You are about to start a block of type 2 trials.,4,4,0,Go,Go,0.26,0.05,0.2,space,blue,horizontal,space,1.0190172001020983,None,space,1,0.416938400012441,None,,,,0,1,1,1,0,4,4,4,639.6733155000256,,,,,,,,,,,,,,,,639.6573458000785,639.6733155000256,640.3725021000719,640.3725021000719,640.8722092000535,640.8558442000067,640.8563143000938,640.8722092000535,641.1385831000516,641.3216764000244,641.3216764000244,641.7415168000152,space,1,0.416938400012441,None,641.7460398999974,642.2546289000893,643.2534779000562,643.2377728000283,,,,,,,,,,,,,,,,,001,002,2025-05-01_23h37.17.735,Cued GoNogo Task,2024.2.4,60.19491112074511,2025-05-01 23h37.26.613787 +0200,
block/CondBlock2.xlsx,You are about to start a block of type 2 trials.,5,5,0,Go,Go,0.1,0.05,0.2,space,blue,horizontal,space,1.0190172001020983,None,space,1,0.25003890006337315,None,,,,0,1,1,1,0,5,5,5,643.2534779000562,,,,,,,,,,,,,,,,643.2380240000784,643.2534779000562,643.9529137000209,643.9529137000209,644.4524936000817,644.436577500077,644.4369506000075,644.4524936000817,644.552649200079,644.7523270000238,644.7523270000238,645.0048775000032,space,1,0.25003890006337315,None,645.0103374000173,645.5182975000935,646.5174725000979,646.5015766000142,,,,,,,,,,,,,,,,,001,002,2025-05-01_23h37.17.735,Cued GoNogo Task,2024.2.4,60.19491112074511,2025-05-01 23h37.26.613787 +0200,
block/CondBlock2.xlsx,You are about to start a block of type 2 trials.,6,6,0,NoGo,NoGo,0.3,0.2,0.05,none,green,vertical,space,1.0190172001020983,None,None,1,,,,,,0,1,1,1,0,6,6,6,646.5174725000979,,,,,,,,,,,,,,,,646.5018356000073,646.5174725000979,647.2169584000949,647.2169584000949,647.7165129000787,647.7003182000481,647.7010612000013,647.7165129000787,648.0164005000843,648.2161794001004,648.2161794001004,648.6997559000738,None,1,,,648.7021235000575,649.2154319999972,,650.2147624000208,648.7157192000886,648.7157192000886,,,,,,,,,,,,,,,001,002,2025-05-01_23h37.17.735,Cued GoNogo Task,2024.2.4,60.19491112074511,2025-05-01 23h37.26.613787 +0200,
block/CondBlock2.xlsx,You are about to start a block of type 2 trials.,7,7,0,NoGo,NoGo,0.14,0.05,0.2,none,blue,horizontal,space,1.0190172001020983,None,None,1,,,,,,0,1,1,1,0,7,7,7,650.2309801999945,,,,,,,,,,,,,,,,650.2150758000789,650.2309801999945,650.9138488000026,650.9304935000837,651.413469400024,651.3973740000511,651.397947999998,651.413469400024,651.5632335999981,651.7465834000614,651.7465834000614,652.2303214001004,None,1,,,652.2308407000965,652.7457585000666,653.7448902000906,653.7289302001009,652.2461133000907,652.2461133000907,,,,,,,,,,,,,,,001,002,2025-05-01_23h37.17.735,Cued GoNogo Task,2024.2.4,60.19491112074511,2025-05-01 23h37.26.613787 +0200,
block/CondBlock2.xlsx,You are about to start a block of type 2 trials.,8,8,0,Go,Go,0.13,0.2,0.05,space,blue,vertical,space,1.0190172001020983,None,space,1,0.4531894999090582,None,,,,0,1,1,1,0,8,8,8,653.7448902000906,,,,,,,,,,,,,,,,653.729226800031,653.7448902000906,654.4444207000779,654.4444207000779,654.944023600081,654.9280106000369,654.9286328000017,654.944023600081,655.0771304999944,655.2602346000494,655.2602346000494,655.7279397000093,space,1,0.4531894999090582,None,655.7316152000567,656.2428943000268,657.24190490006,657.2261984000215,,,,,,,,,,,,,,,,,001,002,2025-05-01_23h37.17.735,Cued GoNogo Task,2024.2.4,60.19491112074511,2025-05-01 23h37.26.613787 +0200,
block/CondBlock2.xlsx,You are about to start a block of type 2 trials.,9,9,0,Go,Go,0.43,0.2,0.05,space,green,vertical,space,1.0190172001020983,None,space,1,0.28976549999788404,None,,,,0,1,1,1,0,9,9,9,657.24190490006,,,,,,,,,,,,,,,,657.2264356000815,657.24190490006,657.9415324000875,657.9415324000875,658.4409811000805,658.4254757000599,658.4263640000718,658.4409811000805,658.8739703000756,659.057168600033,659.057168600033,659.3582662000554,space,1,0.28976549999788404,None,659.3630203000503,659.8732376000844,660.872250400018,660.8562885000138,,,,,,,,,,,,,,,,,001,002,2025-05-01_23h37.17.735,Cued GoNogo Task,2024.2.4,60.19491112074511,2025-05-01 23h37.26.613787 +0200,
block/CondBlock2.xlsx,You are about to start a block of type 2 trials.,10,10,0,Go,Go,0.14,0.2,0.05,space,green,vertical,space,1.0190172001020983,None,space,1,0.22215879999566823,None,,,,0,1,1,1,0,10,10,10,660.872250400018,,,,,,,,,,,,,,,,660.8564798000734,660.872250400018,661.5716134000104,661.5716134000104,662.0713591000531,662.0555528000696,662.056132900063,662.0713591000531,662.2213341000024,662.4044450001093,662.4044450001093,662.6389818000607,space,1,0.22215879999566823,None,662.6436322000809,663.1539901000215,664.152923900052,664.1371312000556,,,,,,,,,,,,,,,,,001,002,2025-05-01_23h37.17.735,Cued GoNogo Task,2024.2.4,60.19491112074511,2025-05-01 23h37.26.613787 +0200,
block/CondBlock2.xlsx,You are about to start a block of type 2 trials.,11,11,0,Go,Go,0.27,0.2,0.05,space,green,vertical,space,1.0190172001020983,None,space,1,0.2719444999238476,None,,,,0,1,1,1,0,11,11,11,664.152923900052,,,,,,,,,,,,,,,,664.1373872000258,664.152923900052,664.8524693000363,664.8524693000363,665.3519452000037,665.3358134001028,665.3363809000002,665.3519452000037,665.6351297000656,665.8184009999968,665.8184009999968,666.1025349000702,space,1,0.2719444999238476,None,666.1056462000124,666.6176813000347,667.6167878000997,667.6009565000422,,,,,,,,,,,,,,,,,001,002,2025-05-01_23h37.17.735,Cued GoNogo Task,2024.2.4,60.19491112074511,2025-05-01 23h37.26.613787 +0200,
block/CondBlock2.xlsx,You are about to start a block of type 2 trials.,12,12,0,Go,Go,0.3,0.05,0.2,space,green,horizontal,space,1.0190172001020983,None,space,1,0.10269179998431355,None,,,,0,1,1,1,0,12,12,12,667.6167878000997,,,,,,,,,,,,,,,,667.601273200009,667.6167878000997,668.3161738000344,668.3161738000344,668.8157325000502,668.8001472000033,668.8009865001077,668.8157325000502,669.1154476000229,669.3153129999992,669.3153129999992,669.4331257001031,space,1,0.10269179998431355,None,669.4377657000441,669.948330400046,670.9473562000785,670.9316686000675,,,,,,,,,,,,,,,,,001,002,2025-05-01_23h37.17.735,Cued GoNogo Task,2024.2.4,60.19491112074511,2025-05-01 23h37.26.613787 +0200,
block/CondBlock2.xlsx,You are about to start a block of type 2 trials.,13,13,0,Go,Go,0.18,0.2,0.05,space,blue,vertical,space,1.0190172001020983,None,space,1,0.24082890001591295,None,,,,0,1,1,1,0,13,13,13,670.9473562000785,,,,,,,,,,,,,,,,670.9320139000192,670.9473562000785,671.6468791000079,671.6468791000079,672.1463637000415,672.130436800071,672.1309846000513,672.1463637000415,672.3296204000944,672.5126624000259,672.5126624000259,672.7637180000311,space,1,0.24082890001591295,None,672.7675809001084,673.2790908000898,674.2779620001093,674.2622401000699,,,,,,,,,,,,,,,,,001,002,2025-05-01_23h37.17.735,Cued GoNogo Task,2024.2.4,60.19491112074511,2025-05-01 23h37.26.613787 +0200,
block/CondBlock2.xlsx,You are about to start a block of type 2 trials.,14,14,0,Go,Go,0.13,0.2,0.05,space,green,vertical,space,1.0190172001020983,None,space,1,0.14419540006201714,None,,,,0,1,1,1,0,14,14,14,674.2779620001093,,,,,,,,,,,,,,,,674.2624907999998,674.2779620001093,674.9773180000484,674.9773180000484,675.4769781000214,675.4610727000982,675.4616263000062,675.4769781000214,675.6102352000307,675.7934811000014,675.7934811000014,675.9443349000067,space,1,0.14419540006201714,None,675.9483397000004,676.4596399000147,677.4586251000874,677.4427401000867,,,,,,,,,,,,,,,,,001,002,2025-05-01_23h37.17.735,Cued GoNogo Task,2024.2.4,60.19491112074511,2025-05-01 23h37.26.613787 +0200,
block/CondBlock2.xlsx,You are about to start a block of type 2 trials.,15,15,0,Go,Go,0.18,0.2,0.05,space,blue,vertical,space,1.0190172001020983,None,space,1,0.09762419993057847,None,,,,0,1,1,1,0,15,15,15,677.4586251000874,,,,,,,,,,,,,,,,677.4429727999959,677.4586251000874,678.1581134001026,678.1581134001026,678.6578711000038,678.6417778000468,678.6425157000776,678.6578711000038,678.8407821001019,679.0240736000706,679.0240736000706,679.125136500108,space,1,0.09762419993057847,None,679.1290029000957,679.6402921000263,680.6395038000774,680.6235100000631,,,,,,,,,,,,,,,,,001,002,2025-05-01_23h37.17.735,Cued GoNogo Task,2024.2.4,60.19491112074511,2025-05-01 23h37.26.613787 +0200,
block/CondBlock2.xlsx,You are about to start a block of type 2 trials.,16,16,0,Go,Go,0.24,0.2,0.05,space,green,vertical,space,1.0190172001020983,None,space,1,0.2979194999206811,None,,,,0,1,1,1,0,16,16,16,680.6395038000774,,,,,,,,,,,,,,,,680.6237562000751,680.6395038000774,681.3388955000555,681.3388955000555,681.8383189000888,681.8224892000435,681.8231000000378,681.8383189000888,682.0882627000101,682.2713777000317,682.2713777000317,682.5724151000613,space,1,0.2979194999206811,None,682.5766981000779,683.0873869000934,684.0865848000394,684.0708210000303,,,,,,,,,,,,,,,,,001,002,2025-05-01_23h37.17.735,Cued GoNogo Task,2024.2.4,60.19491112074511,2025-05-01 23h37.26.613787 +0200,
block/CondBlock2.xlsx,You are about to start a block of type 2 trials.,17,17,0,Go,Go,0.26,0.2,0.05,space,blue,vertical,space,1.0190172001020983,None,space,1,0.25044059997890145,None,,,,0,1,1,1,0,17,17,17,684.0865848000394,,,,,,,,,,,,,,,,684.0711242000107,684.0865848000394,684.7860186001053,684.7860186001053,685.2855138001032,685.2696348000318,685.2701583000598,685.2855138001032,685.5519038001075,685.7353161000647,685.7353161000647,686.0027068000054,space,1,0.25044059997890145,None,686.0062663001008,686.5178335000528,687.5171616000589,687.5011749000987,,,,,,,,,,,,,,,,,001,002,2025-05-01_23h37.17.735,Cued GoNogo Task,2024.2.4,60.19491112074511,2025-05-01 23h37.26.613787 +0200,
block/CondBlock2.xlsx,You are about to start a block of type 2 trials.,18,18,0,Go,Go,0.1,0.05,0.2,space,blue,horizontal,space,1.0190172001020983,None,space,1,0.38620830001309514,None,,,,0,1,1,1,0,18,18,18,687.5171616000589,,,,,,,,,,,,,,,,687.5014070000034,687.5171616000589,688.2168499000836,688.2168499000836,688.7161091000307,688.7004413000541,688.7011240000138,688.7161091000307,688.8158254000591,689.0159910001094,689.0159910001094,689.4166026000166,space,1,0.38620830001309514,None,689.4208900000667,689.9319225000218,690.9309095001081,690.91498770006,,,,,,,,,,,,,,,,,001,002,2025-05-01_23h37.17.735,Cued GoNogo Task,2024.2.4,60.19491112074511,2025-05-01 23h37.26.613787 +0200,
block/CondBlock2.xlsx,You are about to start a block of type 2 trials.,19,19,0,Go,Go,0.46,0.2,0.05,space,blue,vertical,space,1.0190172001020983,None,space,1,0.31082449993118644,None,,,,0,1,1,1,0,19,19,19,690.9309095001081,,,,,,,,,,,,,,,,690.9151825000299,690.9309095001081,691.6302972000558,691.6302972000558,692.1300225000596,692.1141253000824,692.1148002000991,692.1300225000596,692.5962667000713,692.7796133999946,692.7796133999946,693.0968379999977,space,1,0.31082449993118644,None,693.1003351000836,693.6122027999954,694.6113982000388,694.5952219000319,,,,,,,,,,,,,,,,,001,002,2025-05-01_23h37.17.735,Cued GoNogo Task,2024.2.4,60.19491112074511,2025-05-01 23h37.26.613787 +0200,
block/CondBlock2.xlsx,You are about to start a block of type 2 trials.,20,20,0,Go,Go,0.3,0.05,0.2,space,blue,horizontal,space,1.0190172001020983,None,space,1,0.2130788000067696,None,,,,0,1,1,1,0,20,20,20,694.6113982000388,,,,,,,,,,,,,,,,694.5954196000239,694.6113982000388,695.3107631000457,695.3107631000457,695.8102691000095,695.7943687000079,695.7950572000118,695.8102691000095,696.1100945000071,696.3097728000721,696.3097728000721,696.5276691000909,space,1,0.2130788000067696,None,696.5314654000103,697.042722400045,698.0416877000825,698.0260064000031,,,,,,,,,,,,,,,,,001,002,2025-05-01_23h37.17.735,Cued GoNogo Task,2024.2.4,60.19491112074511,2025-05-01 23h37.26.613787 +0200,
block/CondBlock2.xlsx,You are about to start a block of type 2 trials.,21,21,0,Go,Go,0.23,0.05,0.2,space,green,horizontal,space,1.0190172001020983,None,space,1,0.14607870008330792,None,,,,0,1,1,1,0,21,21,21,698.0416877000825,,,,,,,,,,,,,,,,698.0263954000548,698.0416877000825,698.7412394999992,698.7412394999992,699.2408932000399,699.2247894000029,699.2253456000471,699.2408932000399,699.473955500056,699.6571465000743,699.6571465000743,699.8086988000432,space,1,0.14607870008330792,None,699.8133112000069,700.3234077000525,701.3223857000703,701.3070664000697,,,,,,,,,,,,,,,,,001,002,2025-05-01_23h37.17.735,Cued GoNogo Task,2024.2.4,60.19491112074511,2025-05-01 23h37.26.613787 +0200,
block/CondBlock2.xlsx,You are about to start a block of type 2 trials.,22,22,0,Go,Go,0.19,0.2,0.05,space,green,vertical,space,1.0190172001020983,None,space,1,0.2824160000309348,None,,,,0,1,1,1,0,22,22,22,701.3223857000703,,,,,,,,,,,,,,,,701.3074856000021,701.3223857000703,702.0219691999955,702.0219691999955,702.5216627001064,702.5053168000886,702.5059071000433,702.5216627001064,702.7213758000871,702.9044399000704,702.9044399000704,703.1900954000885,space,1,0.2824160000309348,None,703.1943291000789,703.7036587001057,704.702936100075,704.6873859000625,,,,,,,,,,,,,,,,,001,002,2025-05-01_23h37.17.735,Cued GoNogo Task,2024.2.4,60.19491112074511,2025-05-01 23h37.26.613787 +0200,
block/CondBlock2.xlsx,You are about to start a block of type 2 trials.,23,23,0,NoGo,NoGo,0.41,0.2,0.05,none,blue,vertical,space,1.0190172001020983,None,None,1,,,,,,0,1,1,1,0,23,23,23,704.702936100075,,,,,,,,,,,,,,,,704.6876473000739,704.702936100075,705.4023267000448,705.4023267000448,705.9020487000234,705.8861978000496,705.8873817001004,705.9020487000234,706.3185383999953,706.5015278001083,706.5015278001083,706.9852707000682,None,1,,,706.9875642000698,707.500581100001,708.499961100053,708.4839532000478,707.0010153000476,707.0010153000476,,,,,,,,,,,,,,,001,002,2025-05-01_23h37.17.735,Cued GoNogo Task,2024.2.4,60.19491112074511,2025-05-01 23h37.26.613787 +0200,
block/CondBlock2.xlsx,You are about to start a block of type 2 trials.,24,24,0,Go,Go,0.17,0.2,0.05,space,blue,vertical,space,1.0190172001020983,None,None,0,,,,,,0,1,1,1,0,24,24,24,708.499961100053,,,,,,,,,,,,,,,,708.484282300109,708.499961100053,709.1992300000275,709.1992300000275,709.6988143000053,709.682582700043,709.6830733000534,709.6988143000053,709.8819668000797,710.0653298000107,710.0653298000107,710.5485938000493,None,0,,,710.5507448000135,711.0475821000291,712.0469726000447,712.0310122000519,710.56477060006,710.56477060006,,,,,,,,,,,,,,,001,002,2025-05-01_23h37.17.735,Cued GoNogo Task,2024.2.4,60.19491112074511,2025-05-01 23h37.26.613787 +0200,
block/CondBlock2.xlsx,You are about to start a block of type 2 trials.,25,25,0,Go,Go,0.27,0.05,0.2,space,blue,horizontal,space,1.0190172001020983,None,space,1,0.20874929998535663,None,,,,0,1,1,1,0,25,25,25,712.0469726000447,,,,,,,,,,,,,,,,712.0312901000725,712.0635242999997,712.7630203000735,712.7630203000735,713.2625429000473,713.2466681000078,713.2472353000194,713.2625429000473,713.5456969001098,713.7289790000068,713.7289790000068,713.9467219000217,space,1,0.20874929998535663,None,713.9498868000228,714.4617940000026,715.4607203000924,715.4452191001037,,,,,,,,,,,,,,,,,001,002,2025-05-01_23h37.17.735,Cued GoNogo Task,2024.2.4,60.19491112074511,2025-05-01 23h37.26.613787 +0200,
block/CondBlock2.xlsx,You are about to start a block of type 2 trials.,26,26,0,Go,Go,0.26,0.05,0.2,space,green,horizontal,space,1.0190172001020983,None,space,1,0.22892219992354512,None,,,,0,1,1,1,0,26,26,26,715.4607203000924,,,,,,,,,,,,,,,,715.4455492000561,715.4607203000924,716.1603253000649,716.1603253000649,716.659899600083,716.6439551000949,716.6446349000325,716.659899600083,716.9263147000456,717.109458800056,717.109458800056,717.3438080000924,space,1,0.22892219992354512,None,717.3475805000635,717.8588301000418,718.8578895000974,718.8419818000402,,,,,,,,,,,,,,,,,001,002,2025-05-01_23h37.17.735,Cued GoNogo Task,2024.2.4,60.19491112074511,2025-05-01 23h37.26.613787 +0200,
block/CondBlock2.xlsx,You are about to start a block of type 2 trials.,27,27,0,Go,Go,0.22,0.2,0.05,space,green,vertical,space,1.0190172001020983,None,space,1,0.10485260002315044,None,,,,0,1,1,1,0,27,27,27,718.8578895000974,,,,,,,,,,,,,,,,718.8421576000983,718.8578895000974,719.5576125000371,719.5576125000371,720.0568684000755,720.0411462000338,720.0417506000958,720.0568684000755,720.29008600011,720.473415400018,720.473415400018,720.591128500062,space,1,0.10485260002315044,None,720.5962633000454,721.1061931001022,722.1051503000781,722.0892078001052,,,,,,,,,,,,,,,,,001,002,2025-05-01_23h37.17.735,Cued GoNogo Task,2024.2.4,60.19491112074511,2025-05-01 23h37.26.613787 +0200,
block/CondBlock2.xlsx,You are about to start a block of type 2 trials.,28,28,0,Go,Go,0.19,0.05,0.2,space,blue,horizontal,space,1.0190172001020983,None,space,1,0.1549106000456959,None,,,,0,1,1,1,0,28,28,28,722.1051503000781,,,,,,,,,,,,,,,,722.0893803000217,722.1051503000781,722.8047747000819,722.8047747000819,723.3045996000292,723.2886552000418,723.2893416000297,723.3045996000292,723.5041203000583,723.6872723000124,723.6872723000124,723.8550207000226,space,1,0.1549106000456959,None,723.8587966000196,724.3703093000222,725.3692685000133,725.3534549000906,,,,,,,,,,,,,,,,,001,002,2025-05-01_23h37.17.735,Cued GoNogo Task,2024.2.4,60.19491112074511,2025-05-01 23h37.26.613787 +0200,
block/CondBlock2.xlsx,You are about to start a block of type 2 trials.,29,29,0,Go,Go,0.18,0.05,0.2,space,blue,horizontal,space,1.0190172001020983,None,space,1,0.2919022999703884,None,,,,0,1,1,1,0,29,29,29,725.3692685000133,,,,,,,,,,,,,,,,725.3537630001083,725.3692685000133,726.0688722000923,726.0688722000923,726.5682459000964,726.5524052000837,726.5529520000564,726.5682459000964,726.7515599000035,726.934684200096,726.934684200096,727.2358822000679,space,1,0.2919022999703884,None,727.2409335999982,727.7506536000874,728.7495913000312,728.7339311999967,,,,,,,,,,,,,,,,,001,002,2025-05-01_23h37.17.735,Cued GoNogo Task,2024.2.4,60.19491112074511,2025-05-01 23h37.26.613787 +0200,
block/CondBlock2.xlsx,You are about to start a block of type 2 trials.,30,30,0,NoGo,NoGo,0.23,0.2,0.05,none,blue,vertical,space,1.0190172001020983,None,space,0,0.17308909993153065,None,,,,0,1,1,1,0,30,30,30,728.7495913000312,,,,,,,,,,,,,,,,728.7342319000745,728.7495913000312,729.4491959000006,729.4491959000006,729.9488652000437,729.9326536000008,729.9331123000011,729.9488652000437,730.18194150005,730.365307,730.365307,730.549635100062,space,0,0.17308909993153065,None,730.5559554001084,731.0648002000526,732.0638326000189,732.0480134000536,,,,,,,,,,,,,,,,,001,002,2025-05-01_23h37.17.735,Cued GoNogo Task,2024.2.4,60.19491112074511,2025-05-01 23h37.26.613787 +0200,
block/CondBlock2.xlsx,You are about to start a block of type 2 trials.,31,31,0,Go,Go,0.43,0.2,0.05,space,green,vertical,space,1.0190172001020983,None,space,1,0.37945710006169975,None,,,,0,1,1,1,0,31,31,31,732.0638326000189,,,,,,,,,,,,,,,,732.0483153000241,732.0638326000189,732.7632231001044,732.7632231001044,733.262780200108,733.2468696000287,733.2474765001098,733.262780200108,733.6958499000175,733.8788502000971,733.8788502000971,734.2635596001055,space,1,0.37945710006169975,None,734.2686283000512,734.778370300075,735.7773199999938,735.7615712000988,,,,,,,,,,,,,,,,,001,002,2025-05-01_23h37.17.735,Cued GoNogo Task,2024.2.4,60.19491112074511,2025-05-01 23h37.26.613787 +0200,
block/CondBlock2.xlsx,You are about to start a block of type 2 trials.,32,32,0,Go,Go,0.13,0.05,0.2,space,blue,horizontal,space,1.0190172001020983,None,space,1,0.34113029995933175,None,,,,0,1,1,1,0,32,32,32,735.7773199999938,,,,,,,,,,,,,,,,735.7618922000984,735.7773199999938,736.4769374000607,736.4769374000607,736.9763685000362,736.9603971000761,736.9610136999981,736.9763685000362,737.1096520000137,737.2928894000361,737.2928894000361,737.6436520999996,space,1,0.34113029995933175,None,737.6472517000511,738.1586227000225,739.1578510000836,739.1422987000551,,,,,,,,,,,,,,,,,001,002,2025-05-01_23h37.17.735,Cued GoNogo Task,2024.2.4,60.19491112074511,2025-05-01 23h37.26.613787 +0200,
block/CondBlock2.xlsx,You are about to start a block of type 2 trials.,33,33,0,Go,Go,0.45,0.05,0.2,space,green,horizontal,space,1.0190172001020983,None,space,1,0.2442288000602275,None,,,,0,1,1,1,0,33,33,33,739.1578510000836,,,,,,,,,,,,,,,,739.1426392000867,739.1578510000836,739.8572244000388,739.8572244000388,740.3570659999968,740.3414372000843,740.3422216000035,740.3570659999968,740.8068518000655,741.0065544000827,741.0065544000827,741.2581250000512,space,1,0.2442288000602275,None,741.2644180000061,741.7725103000412,742.7715953000588,742.7556161000393,,,,,,,,,,,,,,,,,001,002,2025-05-01_23h37.17.735,Cued GoNogo Task,2024.2.4,60.19491112074511,2025-05-01 23h37.26.613787 +0200,
block/CondBlock2.xlsx,You are about to start a block of type 2 trials.,34,34,0,Go,Go,0.14,0.2,0.05,space,blue,vertical,space,1.0190172001020983,None,space,1,0.21834209992084652,None,,,,0,1,1,1,0,34,34,34,742.7715953000588,,,,,,,,,,,,,,,,742.7558544001076,742.7715953000588,743.4710700000869,743.4710700000869,743.970697300043,743.9548070000019,743.9553696000949,743.970697300043,744.1205118000507,744.3038522000425,744.3038522000425,744.5377937000012,space,1,0.21834209992084652,None,744.5406981999986,745.0531844000798,746.0523291000864,746.0363983000861,,,,,,,,,,,,,,,,,001,002,2025-05-01_23h37.17.735,Cued GoNogo Task,2024.2.4,60.19491112074511,2025-05-01 23h37.26.613787 +0200,
block/CondBlock2.xlsx,You are about to start a block of type 2 trials.,35,35,0,Go,Go,0.11,0.2,0.05,space,blue,vertical,space,1.0190172001020983,None,space,1,0.06751640001311898,None,,,,0,1,1,1,0,35,35,35,746.0523291000864,,,,,,,,,,,,,,,,746.0367953000823,746.0523291000864,746.7519367000787,746.7519367000787,747.2513906999957,747.2357336001005,747.2365783000132,747.2513906999957,747.3679133000551,747.5509737000102,747.5509737000102,747.6351277000504,space,1,0.06751640001311898,None,747.6385305000003,748.1505605001003,749.1497800000943,749.1342304000864,,,,,,,,,,,,,,,,,001,002,2025-05-01_23h37.17.735,Cued GoNogo Task,2024.2.4,60.19491112074511,2025-05-01 23h37.26.613787 +0200,
block/CondBlock2.xlsx,You are about to start a block of type 2 trials.,36,36,0,Go,Go,0.15,0.05,0.2,space,green,horizontal,space,1.0190172001020983,None,None,0,,,,,,0,1,1,1,0,36,36,36,749.1497800000943,,,,,,,,,,,,,,,,749.1346588000888,749.1497800000943,749.8491923999973,749.8491923999973,750.3487625000998,750.3330166999949,750.3337044001091,750.3487625000998,750.4986540999962,750.698520300095,750.698520300095,751.1824077001074,None,0,,,751.1853812000481,751.6979340000544,,752.6969592000823,751.1979713001056,751.1979713001056,,,,,,,,,,,,,,,001,002,2025-05-01_23h37.17.735,Cued GoNogo Task,2024.2.4,60.19491112074511,2025-05-01 23h37.26.613787 +0200,
block/CondBlock2.xlsx,You are about to start a block of type 2 trials.,37,37,0,Go,Go,0.15,0.2,0.05,space,green,vertical,space,1.0190172001020983,None,space,1,0.26162669993937016,None,,,,0,1,1,1,0,37,37,37,752.7136127999984,,,,,,,,,,,,,,,,752.6972674001008,752.7136127999984,753.3963414001046,753.4129440000979,753.8957038000226,753.8798057000386,753.8803803001065,753.8957038000226,754.0457445000065,754.2455820000032,754.2455820000032,754.513248900068,space,1,0.26162669993937016,None,754.516795600066,755.0282852000091,756.0272739001084,756.0112775000744,,,,,,,,,,,,,,,,,001,002,2025-05-01_23h37.17.735,Cued GoNogo Task,2024.2.4,60.19491112074511,2025-05-01 23h37.26.613787 +0200,
block/CondBlock2.xlsx,You are about to start a block of type 2 trials.,38,38,0,NoGo,NoGo,0.14,0.2,0.05,none,green,vertical,space,1.0190172001020983,None,space,0,0.20198979997076094,None,,,,0,1,1,1,0,38,38,38,756.0272739001084,,,,,,,,,,,,,,,,756.0115213000681,756.0272739001084,756.7270352001069,756.7270352001069,757.2263516000239,757.2102137000766,757.210702200071,757.2263516000239,757.3762338000815,757.5595157000935,757.5595157000935,757.7770416000858,space,0,0.20198979997076094,None,757.7809533000691,758.2924729000079,,759.2915267000208,,,,,,,,,,,,,,,,,001,002,2025-05-01_23h37.17.735,Cued GoNogo Task,2024.2.4,60.19491112074511,2025-05-01 23h37.26.613787 +0200,
block/CondBlock2.xlsx,You are about to start a block of type 2 trials.,39,39,0,Go,Go,0.46,0.2,0.05,space,green,vertical,space,1.0190172001020983,None,space,1,0.17458680004347116,None,,,,0,1,1,1,0,39,39,39,759.3080310000805,,,,,,,,,,,,,,,,759.2917603000533,759.3080310000805,759.9907225000206,760.0076240000781,760.4903482000809,760.4745654000435,760.4752945000073,760.4903482000809,760.9567260000622,761.1398568000877,761.1398568000877,761.324134800001,space,1,0.17458680004347116,None,761.3278465000913,761.839297800092,762.8385391000193,762.8227769000223,,,,,,,,,,,,,,,,,001,002,2025-05-01_23h37.17.735,Cued GoNogo Task,2024.2.4,60.19491112074511,2025-05-01 23h37.26.613787 +0200,
block/CondBlock2.xlsx,You are about to start a block of type 2 trials.,40,40,0,Go,Go,0.5,0.05,0.2,space,blue,horizontal,space,1.0190172001020983,None,space,1,0.3290179999312386,None,,,,0,1,1,1,0,40,40,40,762.8385391000193,,,,,,,,,,,,,,,,762.8231508000754,762.8385391000193,763.5379260000773,763.5379260000773,764.037378200097,764.0218619001098,764.022671300103,764.037378200097,764.5372936000349,764.7368554000277,764.7368554000277,765.0715260000434,space,1,0.3290179999312386,None,765.0755514000775,765.586342100054,766.585479100002,766.5699146999978,,,,,,,,,,,,,,,,,001,002,2025-05-01_23h37.17.735,Cued GoNogo Task,2024.2.4,60.19491112074511,2025-05-01 23h37.26.613787 +0200,
block/CondBlock2.xlsx,You are about to start a block of type 2 trials.,41,41,0,Go,Go,0.16,0.05,0.2,space,green,horizontal,space,1.0190172001020983,None,space,1,0.13118049991317093,None,,,,0,1,1,1,0,41,41,41,766.585479100002,,,,,,,,,,,,,,,,766.5702685000142,766.585479100002,767.28495510004,767.28495510004,767.7844762000022,767.7682823000941,767.7688443000661,767.7844762000022,767.9509196000872,768.1340998000233,768.1340998000233,768.2683291001013,space,1,0.13118049991317093,None,768.2713182000443,768.7835122999968,769.7829409000697,769.766797700082,,,,,,,,,,,,,,,,,001,002,2025-05-01_23h37.17.735,Cued GoNogo Task,2024.2.4,60.19491112074511,2025-05-01 23h37.26.613787 +0200,
