Block,blockMsg,thisN,thisTrialN,thisRepN,CueType,StimType,CueTime,Stim_Height,Stim_Width,CRESP,Color,Orientation,key_resp_2.keys,key_resp_2.rt,key_resp_2.duration,Key_Resp.keys,Key_Resp.corr,Key_Resp.rt,Key_Resp.duration,key_resp_3.keys,key_resp_3.rt,key_resp_3.duration,Blocks.thisRepN,Blocks.thisTrialN,Blocks.thisN,Blocks.thisIndex,Trials.thisRepN,Trials.thisTrialN,Trials.thisN,Trials.thisIndex,thisRow.t,notes,TaskIntro.started,fixation.started,key_resp.started,TaskIntro.stopped,key_resp.keys,key_resp.rt,key_resp.duration,BlockStart.started,BlockStart_Msg.started,key_resp_2.started,BlockStart.stopped,Blocks.key_resp_2.keys,Blocks.key_resp_2.rt,Blocks.key_resp_2.duration,Fixation.started,FixationPhase.started,Blank.started,FixationPhase.stopped,Blank.stopped,Fixation.stopped,Trial.started,Cue.started,Cue.stopped,GoNogo_Stim.started,Key_Resp.started,Trial.stopped,Trials.Key_Resp.keys,Trials.Key_Resp.corr,Trials.Key_Resp.rt,Trials.Key_Resp.duration,Feedback.started,Feedback_Present.started,Feedback_Present.stopped,Feedback.stopped,GoNogo_Stim.stopped,Key_Resp.stopped,BlockEnd.started,BlockEnd_Msg.started,key_resp_3.started,BlockEnd.stopped,Blocks.key_resp_3.keys,Blocks.key_resp_3.rt,Blocks.key_resp_3.duration,TaskEnd.started,ThankYou.started,key_resp_4.started,TaskEnd.stopped,key_resp_4.keys,key_resp_4.rt,key_resp_4.duration,participant,session,date,expName,psychopyVersion,frameRate,expStart,
,,,,,,,,,,,,,,,,,,,,,,,,,,,,,,,,,0.0015121999895200133,0.003843699989374727,0.003843699989374727,25.946781700011343,space,25.879079499980435,None,,,,,,,,,,,,,,,,,,,,,,,,,,,,,,,,,,,,,,,,,,,,005,002,2025-04-28_20h00.13.043,Cued GoNogo Task,2024.2.4,60.14440671383051,2025-04-28 20h00.23.232206 +0200,
block/CondBlock1.xlsx,You are about to start a block of type 1 trials.,0,0,0,Go,Go,0.13,0.05,0.2,space,blue,horizontal,space,0.7733088000095449,None,space,1,0.4004267000127584,None,,,,0,0,0,0,0,0,0,0,26.816250399977434,,,,,,,,,25.9556749999756,25.95842589996755,25.95842589996755,26.73691699997289,space,0.7733088000095449,None,26.813396399957128,26.816250399977434,27.45216549996985,27.51869960001204,27.95138159999624,27.935405099997297,27.935872500005644,27.95138159999624,28.08505769999465,28.2679392999853,28.2679392999853,28.685734700004105,space,1,0.4004267000127584,None,28.696819200005848,29.200657200010028,30.19959249999374,30.183813099982217,,,,,,,,,,,,,,,,,005,002,2025-04-28_20h00.13.043,Cued GoNogo Task,2024.2.4,60.14440671383051,2025-04-28 20h00.23.232206 +0200,
block/CondBlock1.xlsx,You are about to start a block of type 1 trials.,1,1,0,NoGo,NoGo,0.43,0.05,0.2,none,blue,horizontal,space,0.7733088000095449,None,None,1,,,,,,0,0,0,0,0,1,1,1,30.19959249999374,,,,,,,,,,,,,,,,30.18412339995848,30.19959249999374,30.89914980001049,30.89914980001049,31.398711999994703,31.382840499980375,31.383485300000757,31.398711999994703,31.831939800002147,32.014892300008796,32.014892300008796,32.498702799959574,None,1,,,32.50105889997212,33.014032699982636,34.0132045999635,33.99732799996855,32.514486100000795,32.514486100000795,,,,,,,,,,,,,,,005,002,2025-04-28_20h00.13.043,Cued GoNogo Task,2024.2.4,60.14440671383051,2025-04-28 20h00.23.232206 +0200,
block/CondBlock1.xlsx,You are about to start a block of type 1 trials.,2,2,0,Go,Go,0.12,0.2,0.05,space,blue,vertical,space,0.7733088000095449,None,space,1,0.34008320001885295,None,,,,0,0,0,0,0,2,2,2,34.0132045999635,,,,,,,,,,,,,,,,33.99765519995708,34.0132045999635,34.71283209999092,34.71283209999092,35.212150699982885,35.196324999968056,35.197002200002316,35.212150699982885,35.34548919997178,35.52861929999199,35.52861929999199,35.879211299994495,space,1,0.34008320001885295,None,35.883268799982034,36.39454020000994,37.39384649996646,37.37804919999326,,,,,,,,,,,,,,,,,005,002,2025-04-28_20h00.13.043,Cued GoNogo Task,2024.2.4,60.14440671383051,2025-04-28 20h00.23.232206 +0200,
block/CondBlock1.xlsx,You are about to start a block of type 1 trials.,3,3,0,NoGo,NoGo,0.18,0.2,0.05,none,green,vertical,space,0.7733088000095449,None,None,1,,,,,,0,0,0,0,0,3,3,3,37.39384649996646,,,,,,,,,,,,,,,,37.37834549997933,37.39384649996646,38.093283499998506,38.093283499998506,38.592741500004195,38.577175999991596,38.57785130001139,38.592741500004195,38.77579280000646,38.959193099988624,38.959193099988624,39.44290809996892,None,1,,,39.44522239995422,39.9583095999551,40.95760219998192,40.94136429997161,39.45865099999355,39.45865099999355,,,,,,,,,,,,,,,005,002,2025-04-28_20h00.13.043,Cued GoNogo Task,2024.2.4,60.14440671383051,2025-04-28 20h00.23.232206 +0200,
block/CondBlock1.xlsx,You are about to start a block of type 1 trials.,4,4,0,Go,Go,0.24,0.05,0.2,space,green,horizontal,space,0.7733088000095449,None,space,1,0.33437579998280853,None,,,,0,0,0,0,0,4,4,4,40.95760219998192,,,,,,,,,,,,,,,,40.941681600001175,40.95760219998192,41.65702509996481,41.65702509996481,42.15645539999241,42.140766499971505,42.141331399965566,42.15645539999241,42.406419899954926,42.58923949999735,42.58923949999735,42.9399508999777,space,1,0.33437579998280853,None,42.943016699980944,43.45546629995806,44.454822100000456,44.43861339997966,,,,,,,,,,,,,,,,,005,002,2025-04-28_20h00.13.043,Cued GoNogo Task,2024.2.4,60.14440671383051,2025-04-28 20h00.23.232206 +0200,
block/CondBlock1.xlsx,You are about to start a block of type 1 trials.,5,5,0,Go,Go,0.21,0.05,0.2,space,blue,horizontal,space,0.7733088000095449,None,space,1,0.3099771999986842,None,,,,0,0,0,0,0,5,5,5,44.454822100000456,,,,,,,,,,,,,,,,44.43886999995448,44.454822100000456,45.15400049998425,45.15400049998425,45.65370809996966,45.63801349996356,45.638681299984455,45.65370809996966,45.87011119996896,46.053392399975564,46.053392399975564,46.37078579998342,space,1,0.3099771999986842,None,46.375181299983524,46.88582859997405,47.88519120001001,47.869120299990755,,,,,,,,,,,,,,,,,005,002,2025-04-28_20h00.13.043,Cued GoNogo Task,2024.2.4,60.14440671383051,2025-04-28 20h00.23.232206 +0200,
block/CondBlock1.xlsx,You are about to start a block of type 1 trials.,6,6,0,Go,Go,0.11,0.2,0.05,space,blue,vertical,space,0.7733088000095449,None,space,1,0.3475008999812417,None,,,,0,0,0,0,0,6,6,6,47.88519120001001,,,,,,,,,,,,,,,,47.86941779998597,47.88519120001001,48.584589699981734,48.584589699981734,49.08430019998923,49.06835219997447,49.06911909999326,49.08430019998923,49.200690099969506,49.38396169996122,49.38396169996122,49.73472050001146,space,1,0.3475008999812417,None,49.73918889998458,50.24994589999551,51.24899709998863,51.23303589998977,,,,,,,,,,,,,,,,,005,002,2025-04-28_20h00.13.043,Cued GoNogo Task,2024.2.4,60.14440671383051,2025-04-28 20h00.23.232206 +0200,
block/CondBlock1.xlsx,You are about to start a block of type 1 trials.,7,7,0,Go,Go,0.15,0.2,0.05,space,blue,vertical,space,0.7733088000095449,None,space,1,0.36661090003326535,None,,,,0,0,0,0,0,7,7,7,51.24899709998863,,,,,,,,,,,,,,,,51.23330189997796,51.24899709998863,51.94838239997625,51.94838239997625,52.44809459999669,52.4321811000118,52.43289050000021,52.44809459999669,52.597839800000656,52.797736899985466,52.797736899985466,53.16651249997085,space,1,0.36661090003326535,None,53.1708392999717,53.680346599954646,54.67948059999617,54.66361170000164,,,,,,,,,,,,,,,,,005,002,2025-04-28_20h00.13.043,Cued GoNogo Task,2024.2.4,60.14440671383051,2025-04-28 20h00.23.232206 +0200,
block/CondBlock1.xlsx,You are about to start a block of type 1 trials.,8,8,0,NoGo,NoGo,0.3,0.05,0.2,none,blue,horizontal,space,0.7733088000095449,None,None,1,,,,,,0,0,0,0,0,8,8,8,54.67948059999617,,,,,,,,,,,,,,,,54.663879800005816,54.67948059999617,55.379191699961666,55.379191699961666,55.878666699980386,55.86264020000817,55.86354399996344,55.878666699980386,56.178307999973185,56.378012600005604,56.378012600005604,56.86215269996319,None,1,,,56.865359999996144,57.37744039995596,58.37656070000958,58.3605195999844,56.877820099995006,56.877820099995006,,,,,,,,,,,,,,,005,002,2025-04-28_20h00.13.043,Cued GoNogo Task,2024.2.4,60.14440671383051,2025-04-28 20h00.23.232206 +0200,
block/CondBlock1.xlsx,You are about to start a block of type 1 trials.,9,9,0,NoGo,NoGo,0.17,0.05,0.2,none,blue,horizontal,space,0.7733088000095449,None,None,1,,,,,,0,0,0,0,0,9,9,9,58.37656070000958,,,,,,,,,,,,,,,,58.36076199996751,58.37656070000958,59.07613209995907,59.07613209995907,59.57546719996026,59.55982069997117,59.560591299959924,59.57546719996026,59.75879359996179,59.94208209996577,59.94208209996577,60.42533509997884,None,1,,,60.4257263999898,60.92446959996596,61.92357519996585,61.90820279996842,60.44152449996909,60.44152449996909,,,,,,,,,,,,,,,005,002,2025-04-28_20h00.13.043,Cued GoNogo Task,2024.2.4,60.14440671383051,2025-04-28 20h00.23.232206 +0200,
block/CondBlock1.xlsx,You are about to start a block of type 1 trials.,10,10,0,NoGo,NoGo,0.26,0.2,0.05,none,green,vertical,space,0.7733088000095449,None,None,1,,,,,,0,0,0,0,0,10,10,10,61.92357519996585,,,,,,,,,,,,,,,,61.90843740000855,61.94011309999041,62.63972709997324,62.63972709997324,63.13938760000747,63.123281400010455,63.12387879996095,63.13938760000747,63.40564579999773,63.58896550000645,63.58896550000645,64.07250369997928,None,1,,,64.07294280000497,64.57145659998059,65.5705037000007,65.55442629999015,64.08851769997273,64.08851769997273,,,,,,,,,,,,,,,005,002,2025-04-28_20h00.13.043,Cued GoNogo Task,2024.2.4,60.14440671383051,2025-04-28 20h00.23.232206 +0200,
block/CondBlock1.xlsx,You are about to start a block of type 1 trials.,11,11,0,Go,Go,0.27,0.05,0.2,space,green,horizontal,space,0.7733088000095449,None,space,1,0.3426736000110395,None,,,,0,0,0,0,0,11,11,11,65.5705037000007,,,,,,,,,,,,,,,,65.55462690000422,65.58718450000742,66.2865732999635,66.2865732999635,66.78635159996338,66.77087619999656,66.7719342999626,66.78635159996338,67.0694154999801,67.25257989997044,67.25257989997044,67.60333209997043,space,1,0.3426736000110395,None,67.60765969997738,68.11852419999195,69.11772509996081,69.10154030000558,,,,,,,,,,,,,,,,,005,002,2025-04-28_20h00.13.043,Cued GoNogo Task,2024.2.4,60.14440671383051,2025-04-28 20h00.23.232206 +0200,
block/CondBlock1.xlsx,You are about to start a block of type 1 trials.,12,12,0,Go,Go,0.16,0.2,0.05,space,green,vertical,space,0.7733088000095449,None,space,1,0.3849921000073664,None,,,,0,0,0,0,0,12,12,12,69.11772509996081,,,,,,,,,,,,,,,,69.1017154000001,69.11772509996081,69.81711199996062,69.81711199996062,70.31664309999906,70.30079819995444,70.30147089995444,70.31664309999906,70.48319050000282,70.66653310001129,70.66653310001129,71.0669448999688,space,1,0.3849921000073664,None,71.07094209996285,71.58251390000805,,72.58186839998234,,,,,,,,,,,,,,,,,005,002,2025-04-28_20h00.13.043,Cued GoNogo Task,2024.2.4,60.14440671383051,2025-04-28 20h00.23.232206 +0200,
block/CondBlock1.xlsx,You are about to start a block of type 1 trials.,13,13,0,Go,Go,0.13,0.2,0.05,space,green,vertical,space,0.7733088000095449,None,space,1,0.35513139999238774,None,,,,0,0,0,0,0,13,13,13,72.59821480000392,,,,,,,,,,,,,,,,72.5822200999828,72.59821480000392,73.28100699995412,73.29765449999832,73.7805010000011,73.76458199997433,73.76513039995916,73.7805010000011,73.913831199985,74.0969118999783,74.0969118999783,74.46437669999432,space,1,0.35513139999238774,None,74.47029440000188,74.97961009998107,75.97886849998031,75.96288579999236,,,,,,,,,,,,,,,,,005,002,2025-04-28_20h00.13.043,Cued GoNogo Task,2024.2.4,60.14440671383051,2025-04-28 20h00.23.232206 +0200,
block/CondBlock1.xlsx,You are about to start a block of type 1 trials.,14,14,0,Go,Go,0.12,0.05,0.2,space,blue,horizontal,space,0.7733088000095449,None,space,1,0.4615839999751188,None,,,,0,0,0,0,0,14,14,14,75.97886849998031,,,,,,,,,,,,,,,,75.96320489997743,75.97886849998031,76.67808899999363,76.67808899999363,77.17760970001109,77.16181009996217,77.16257059999043,77.17760970001109,77.3108263000031,77.49421919998713,77.49421919998713,77.96164399996633,space,1,0.4615839999751188,None,77.96607359999325,78.4766193999676,79.47574399999576,79.46000570000615,,,,,,,,,,,,,,,,,005,002,2025-04-28_20h00.13.043,Cued GoNogo Task,2024.2.4,60.14440671383051,2025-04-28 20h00.23.232206 +0200,
block/CondBlock1.xlsx,You are about to start a block of type 1 trials.,15,15,0,Go,Go,0.45,0.2,0.05,space,blue,vertical,space,0.7733088000095449,None,space,1,0.43894550000550225,None,,,,0,0,0,0,0,15,15,15,79.47574399999576,,,,,,,,,,,,,,,,79.46034469996812,79.47574399999576,80.17533489997732,80.17533489997732,80.67491110000992,80.65894639998442,80.65945939999074,80.67491110000992,81.12450320000062,81.32455620000837,81.32455620000837,81.77510229998734,space,1,0.43894550000550225,None,81.77908829995431,82.29019859997788,83.28958929999499,83.27366329997312,,,,,,,,,,,,,,,,,005,002,2025-04-28_20h00.13.043,Cued GoNogo Task,2024.2.4,60.14440671383051,2025-04-28 20h00.23.232206 +0200,
block/CondBlock1.xlsx,You are about to start a block of type 1 trials.,16,16,0,NoGo,NoGo,0.14,0.2,0.05,none,green,vertical,space,0.7733088000095449,None,None,1,,,,,,0,0,0,0,0,16,16,16,83.28958929999499,,,,,,,,,,,,,,,,83.27396909997333,83.28958929999499,83.98878610000247,83.98878610000247,84.4884224999696,84.47268770000665,84.47350439999718,84.4884224999696,84.63827090000268,84.82149389997358,84.82149389997358,85.30540559999645,None,1,,,85.30810129997553,85.82073360000504,86.81975939997938,86.80399769998621,85.32095349999145,85.32095349999145,,,,,,,,,,,,,,,005,002,2025-04-28_20h00.13.043,Cued GoNogo Task,2024.2.4,60.14440671383051,2025-04-28 20h00.23.232206 +0200,
block/CondBlock1.xlsx,You are about to start a block of type 1 trials.,17,17,0,Go,Go,0.12,0.05,0.2,space,green,horizontal,space,0.7733088000095449,None,space,1,0.33287430001655594,None,,,,0,0,0,0,0,17,17,17,86.81975939997938,,,,,,,,,,,,,,,,86.80432049999945,86.81975939997938,87.51913219998823,87.51913219998823,88.0186895999941,88.0026133999927,88.00309959996957,88.0186895999941,88.15204610000364,88.33519949996844,88.33519949996844,88.67121169995517,space,1,0.33287430001655594,None,88.67577510001138,89.18447440001182,90.18369269999675,90.16764939995483,,,,,,,,,,,,,,,,,005,002,2025-04-28_20h00.13.043,Cued GoNogo Task,2024.2.4,60.14440671383051,2025-04-28 20h00.23.232206 +0200,
block/CondBlock1.xlsx,You are about to start a block of type 1 trials.,18,18,0,Go,Go,0.47,0.2,0.05,space,blue,vertical,space,0.7733088000095449,None,space,1,0.370827000006102,None,,,,0,0,0,0,0,18,18,18,90.18369269999675,,,,,,,,,,,,,,,,90.1678561999579,90.18369269999675,90.88297279999824,90.88297279999824,91.38277719996404,91.36719739995897,91.3679421999841,91.38277719996404,91.86571909999475,92.04888519999804,92.04888519999804,92.43300919997273,space,1,0.370827000006102,None,92.43640979996417,92.94813289999729,93.9472919999971,93.93154660001164,,,,,,,,,,,,,,,,,005,002,2025-04-28_20h00.13.043,Cued GoNogo Task,2024.2.4,60.14440671383051,2025-04-28 20h00.23.232206 +0200,
block/CondBlock1.xlsx,You are about to start a block of type 1 trials.,19,19,0,Go,Go,0.18,0.2,0.05,space,green,vertical,space,0.7733088000095449,None,space,1,0.29170679999515414,None,,,,0,0,0,0,0,19,19,19,93.9472919999971,,,,,,,,,,,,,,,,93.93186989997048,93.9472919999971,94.64658619998954,94.64658619998954,95.1462373000104,95.13019639998674,95.13076480000746,95.1462373000104,95.32951949996641,95.51279020000948,95.51279020000948,95.81356229999801,space,1,0.29170679999515414,None,95.81902449997142,96.32862220000243,97.32778359996155,97.31172779999906,,,,,,,,,,,,,,,,,005,002,2025-04-28_20h00.13.043,Cued GoNogo Task,2024.2.4,60.14440671383051,2025-04-28 20h00.23.232206 +0200,
block/CondBlock1.xlsx,You are about to start a block of type 1 trials.,20,20,0,Go,Go,0.19,0.2,0.05,space,blue,vertical,space,0.7733088000095449,None,space,1,0.2928609000518918,None,,,,0,0,0,0,0,20,20,20,97.32778359996155,,,,,,,,,,,,,,,,97.31204829999479,97.32778359996155,98.02721009997185,98.02721009997185,98.52694239997072,98.51118629996199,98.51214389997767,98.52694239997072,98.72646049998002,98.91017579997424,98.91017579997424,99.21059480000986,space,1,0.2928609000518918,None,99.21362429996952,99.72575689997757,100.72499919997063,100.70907310000621,,,,,,,,,,,,,,,,,005,002,2025-04-28_20h00.13.043,Cued GoNogo Task,2024.2.4,60.14440671383051,2025-04-28 20h00.23.232206 +0200,
block/CondBlock1.xlsx,You are about to start a block of type 1 trials.,21,21,0,Go,Go,0.14,0.2,0.05,space,blue,vertical,space,0.7733088000095449,None,space,1,0.29901200003223494,None,,,,0,0,0,0,0,21,21,21,100.72499919997063,,,,,,,,,,,,,,,,100.70935640000971,100.72499919997063,101.42453650000971,101.42453650000971,101.92402969999239,101.90806260000682,101.90869129996281,101.92402969999239,102.07396919996245,102.25722430000314,102.25722430000314,102.55854749999708,space,1,0.29901200003223494,None,102.56231549999211,103.07307149999542,104.072257599968,104.05632699996931,,,,,,,,,,,,,,,,,005,002,2025-04-28_20h00.13.043,Cued GoNogo Task,2024.2.4,60.14440671383051,2025-04-28 20h00.23.232206 +0200,
block/CondBlock1.xlsx,You are about to start a block of type 1 trials.,22,22,0,Go,Go,0.15,0.2,0.05,space,blue,vertical,space,0.7733088000095449,None,space,1,0.2708070000517182,None,,,,0,0,0,0,0,22,22,22,104.072257599968,,,,,,,,,,,,,,,,104.05659160000505,104.072257599968,104.77170330000808,104.77170330000808,105.27148469997337,105.25527520000469,105.25590029999148,105.27148469997337,105.42132659995696,105.62087749998318,105.62087749998318,105.90509929996915,space,1,0.2708070000517182,None,105.90878539998084,106.42035629996099,107.41958970000269,107.40346699999645,,,,,,,,,,,,,,,,,005,002,2025-04-28_20h00.13.043,Cued GoNogo Task,2024.2.4,60.14440671383051,2025-04-28 20h00.23.232206 +0200,
block/CondBlock1.xlsx,You are about to start a block of type 1 trials.,23,23,0,Go,Go,0.23,0.05,0.2,space,green,horizontal,space,0.7733088000095449,None,space,1,0.2887171999900602,None,,,,0,0,0,0,0,23,23,23,107.41958970000269,,,,,,,,,,,,,,,,107.40368789999047,107.41958970000269,108.11893459997373,108.11893459997373,108.6186210999731,108.60268519999227,108.60334099997999,108.6186210999731,108.85157969995635,109.034959099954,109.034959099954,109.3355406000046,space,1,0.2887171999900602,None,109.3389919999754,109.85084599995753,110.8500760999741,110.8345690999995,,,,,,,,,,,,,,,,,005,002,2025-04-28_20h00.13.043,Cued GoNogo Task,2024.2.4,60.14440671383051,2025-04-28 20h00.23.232206 +0200,
block/CondBlock1.xlsx,You are about to start a block of type 1 trials.,24,24,0,Go,Go,0.2,0.2,0.05,space,blue,vertical,space,0.7733088000095449,None,space,1,0.23515909997513518,None,,,,0,0,0,0,0,24,24,24,110.8500760999741,,,,,,,,,,,,,,,,110.83483929996146,110.8500760999741,111.5495210000081,111.5495210000081,112.04904149996582,112.03339779999806,112.03418339998461,112.04904149996582,112.24897979997331,112.4486528999987,112.4486528999987,112.69952639995608,space,1,0.23515909997513518,None,112.70293759997003,113.21468450000975,114.21386660001008,114.19801110000117,,,,,,,,,,,,,,,,,005,002,2025-04-28_20h00.13.043,Cued GoNogo Task,2024.2.4,60.14440671383051,2025-04-28 20h00.23.232206 +0200,
block/CondBlock1.xlsx,You are about to start a block of type 1 trials.,25,25,0,Go,Go,0.15,0.2,0.05,space,blue,vertical,space,0.7733088000095449,None,space,1,0.2645935000036843,None,,,,0,0,0,0,0,25,25,25,114.21386660001008,,,,,,,,,,,,,,,,114.19827210000949,114.21386660001008,114.9134117999929,114.9134117999929,115.4129289999837,115.39697760000126,115.39766610000515,115.4129289999837,115.56288079998922,115.76262729999144,115.76262729999144,116.0303467999911,space,1,0.2645935000036843,None,116.03356730000814,116.54544829996303,117.54442729998846,117.52852679998614,,,,,,,,,,,,,,,,,005,002,2025-04-28_20h00.13.043,Cued GoNogo Task,2024.2.4,60.14440671383051,2025-04-28 20h00.23.232206 +0200,
block/CondBlock1.xlsx,You are about to start a block of type 1 trials.,26,26,0,NoGo,NoGo,0.2,0.2,0.05,none,blue,vertical,space,0.7733088000095449,None,space,0,0.24456859997007996,None,,,,0,0,0,0,0,26,26,26,117.54442729998846,,,,,,,,,,,,,,,,117.52882299997145,117.54442729998846,118.24388179997914,118.24388179997914,118.74347399995895,118.72740769997472,118.72802889999002,118.74347399995895,118.94327349995729,119.1430665999651,119.1430665999651,119.39377649995731,space,0,0.24456859997007996,None,119.40114549995633,119.90941349999048,,120.90834809996886,,,,,,,,,,,,,,,,,005,002,2025-04-28_20h00.13.043,Cued GoNogo Task,2024.2.4,60.14440671383051,2025-04-28 20h00.23.232206 +0200,
block/CondBlock1.xlsx,You are about to start a block of type 1 trials.,27,27,0,Go,Go,0.29,0.05,0.2,space,green,horizontal,space,0.7733088000095449,None,space,1,0.342059499991592,None,,,,0,0,0,0,0,27,27,27,120.92481729999417,,,,,,,,,,,,,,,,120.90867739997339,120.92481729999417,121.6076260000118,121.62434149999171,122.10732609999832,122.09129479998956,122.0918626000057,122.10732609999832,122.40700109995669,122.59033499995712,122.59033499995712,122.94115999998758,space,1,0.342059499991592,None,122.94445770001039,123.45623209996847,124.4554563999991,124.43973169999663,,,,,,,,,,,,,,,,,005,002,2025-04-28_20h00.13.043,Cued GoNogo Task,2024.2.4,60.14440671383051,2025-04-28 20h00.23.232206 +0200,
block/CondBlock1.xlsx,You are about to start a block of type 1 trials.,28,28,0,Go,Go,0.24,0.2,0.05,space,blue,vertical,space,0.7733088000095449,None,space,1,0.3159097000025213,None,,,,0,0,0,0,0,28,28,28,124.4554563999991,,,,,,,,,,,,,,,,124.44005599996308,124.4554563999991,125.15477459999966,125.15477459999966,125.6544617000036,125.63840449997224,125.63913429999957,125.6544617000036,125.90412839996861,126.08749149995856,126.08749149995856,126.40586729999632,space,1,0.3159097000025213,None,126.40924489998724,126.92013059998862,127.91932019998785,127.90328099997714,,,,,,,,,,,,,,,,,005,002,2025-04-28_20h00.13.043,Cued GoNogo Task,2024.2.4,60.14440671383051,2025-04-28 20h00.23.232206 +0200,
block/CondBlock1.xlsx,You are about to start a block of type 1 trials.,29,29,0,Go,Go,0.15,0.05,0.2,space,green,horizontal,space,0.7733088000095449,None,space,1,0.3111652999650687,None,,,,0,0,0,0,0,29,29,29,127.91932019998785,,,,,,,,,,,,,,,,127.90354589995695,127.91932019998785,128.61874469998293,128.61874469998293,129.11822969996138,129.10235229996033,129.1028418999631,129.11822969996138,129.26816169999074,129.46804409998003,129.46804409998003,129.78570740000578,space,1,0.3111652999650687,None,129.7894564999733,130.30064659996424,131.29973309999332,131.28395640000235,,,,,,,,,,,,,,,,,005,002,2025-04-28_20h00.13.043,Cued GoNogo Task,2024.2.4,60.14440671383051,2025-04-28 20h00.23.232206 +0200,
block/CondBlock1.xlsx,You are about to start a block of type 1 trials.,30,30,0,Go,Go,0.23,0.2,0.05,space,green,vertical,space,0.7733088000095449,None,space,1,0.3678614999516867,None,,,,0,0,0,0,0,30,30,30,131.29973309999332,,,,,,,,,,,,,,,,131.28424379997887,131.29973309999332,131.99932299996726,131.99932299996726,132.49881149997236,132.48278389999177,132.48332959995605,132.49881149997236,132.7319429999916,132.9152252000058,132.9152252000058,133.2996182999923,space,1,0.3678614999516867,None,133.30349309998564,133.81449049996445,134.81362799997441,134.797876800003,,,,,,,,,,,,,,,,,005,002,2025-04-28_20h00.13.043,Cued GoNogo Task,2024.2.4,60.14440671383051,2025-04-28 20h00.23.232206 +0200,
block/CondBlock1.xlsx,You are about to start a block of type 1 trials.,31,31,0,Go,Go,0.28,0.2,0.05,space,green,vertical,space,0.7733088000095449,None,space,1,0.2852491000085138,None,,,,0,0,0,0,0,31,31,31,134.81362799997441,,,,,,,,,,,,,,,,134.7981887999922,134.81362799997441,135.51320729998406,135.51320729998406,136.01276999997208,135.99699730001157,135.99766880000243,136.01276999997208,136.29569479997735,136.4788658999605,136.4788658999605,136.77993560000323,space,1,0.2852491000085138,None,136.7843567999662,137.2949498000089,138.29422929999419,138.27823160000844,,,,,,,,,,,,,,,,,005,002,2025-04-28_20h00.13.043,Cued GoNogo Task,2024.2.4,60.14440671383051,2025-04-28 20h00.23.232206 +0200,
block/CondBlock1.xlsx,You are about to start a block of type 1 trials.,32,32,0,Go,Go,0.19,0.2,0.05,space,green,vertical,space,0.7733088000095449,None,space,1,0.391756400000304,None,,,,0,0,0,0,0,32,32,32,138.29422929999419,,,,,,,,,,,,,,,,138.27859870000975,138.29422929999419,138.99355139996624,138.99355139996624,139.49296319996938,139.4768100999645,139.47717239998747,139.49296319996938,139.6927096999716,139.87618429999566,139.87618429999566,140.27704889996676,space,1,0.391756400000304,None,140.28099429997383,140.79207039996982,141.79124009999214,141.77513429999817,,,,,,,,,,,,,,,,,005,002,2025-04-28_20h00.13.043,Cued GoNogo Task,2024.2.4,60.14440671383051,2025-04-28 20h00.23.232206 +0200,
block/CondBlock1.xlsx,You are about to start a block of type 1 trials.,33,33,0,Go,Go,0.12,0.2,0.05,space,green,vertical,space,0.7733088000095449,None,space,1,0.3125311000039801,None,,,,0,0,0,0,0,33,33,33,141.79124009999214,,,,,,,,,,,,,,,,141.77535409998382,141.79124009999214,142.49054569995496,142.49054569995496,142.99029419996077,142.97410839999793,142.9746593000018,142.99029419996077,143.12351169995964,143.3066100999713,143.3066100999713,143.6240048999898,space,1,0.3125311000039801,None,143.62737780000316,144.13932009995915,145.13838089996716,145.12243980000494,,,,,,,,,,,,,,,,,005,002,2025-04-28_20h00.13.043,Cued GoNogo Task,2024.2.4,60.14440671383051,2025-04-28 20h00.23.232206 +0200,
block/CondBlock1.xlsx,You are about to start a block of type 1 trials.,34,34,0,Go,Go,0.18,0.2,0.05,space,blue,vertical,space,0.7733088000095449,None,space,1,0.36380130000179633,None,,,,0,0,0,0,0,34,34,34,145.13838089996716,,,,,,,,,,,,,,,,145.12267620000057,145.13838089996716,145.83798289997503,145.83798289997503,146.33752469997853,146.3217178999912,146.3224572999752,146.33752469997853,146.52070809999714,146.70381279999856,146.70381279999856,147.07155940000666,space,1,0.36380130000179633,None,147.07570679998025,147.58653239998966,148.5857069999911,148.57022679998772,,,,,,,,,,,,,,,,,005,002,2025-04-28_20h00.13.043,Cued GoNogo Task,2024.2.4,60.14440671383051,2025-04-28 20h00.23.232206 +0200,
block/CondBlock1.xlsx,You are about to start a block of type 1 trials.,35,35,0,Go,Go,0.21,0.2,0.05,space,blue,vertical,space,0.7733088000095449,None,space,1,0.2917130999849178,None,,,,0,0,0,0,0,35,35,35,148.5857069999911,,,,,,,,,,,,,,,,148.57057009998243,148.5857069999911,149.28530439996393,149.28530439996393,149.78466850001132,149.76883039996028,149.76937509997515,149.78466850001132,150.0013706999598,150.18455469998298,150.18455469998298,150.48500909999711,space,1,0.2917130999849178,None,150.48884050000925,151.0004177999799,151.99944469996262,151.98352519999025,,,,,,,,,,,,,,,,,005,002,2025-04-28_20h00.13.043,Cued GoNogo Task,2024.2.4,60.14440671383051,2025-04-28 20h00.23.232206 +0200,
block/CondBlock1.xlsx,You are about to start a block of type 1 trials.,36,36,0,Go,Go,0.2,0.2,0.05,space,green,vertical,space,0.7733088000095449,None,space,1,0.3406691999989562,None,,,,0,0,0,0,0,36,36,36,151.99944469996262,,,,,,,,,,,,,,,,151.98377299995627,151.99944469996262,152.69894510001177,152.69894510001177,153.19860689999769,153.18271389999427,153.18343709997134,153.19860689999769,153.3984480999643,153.5982306000078,153.5982306000078,153.94937729998492,space,1,0.3406691999989562,None,153.95447209995473,154.46420009998837,155.46335559996078,155.44731859996682,,,,,,,,,,,,,,,,,005,002,2025-04-28_20h00.13.043,Cued GoNogo Task,2024.2.4,60.14440671383051,2025-04-28 20h00.23.232206 +0200,
block/CondBlock1.xlsx,You are about to start a block of type 1 trials.,37,37,0,Go,Go,0.45,0.05,0.2,space,blue,horizontal,space,0.7733088000095449,None,space,1,0.30017210001824424,None,,,,0,0,0,0,0,37,37,37,155.46335559996078,,,,,,,,,,,,,,,,155.44756359996973,155.46335559996078,156.1627755999798,156.1627755999798,156.6621540999622,156.6462986000115,156.64690900000278,156.6621540999622,157.11207009997452,157.31171209999593,157.31171209999593,157.61391650000587,space,1,0.30017210001824424,None,157.61746919999132,158.12764399999287,159.12709029996768,159.11107909999555,,,,,,,,,,,,,,,,,005,002,2025-04-28_20h00.13.043,Cued GoNogo Task,2024.2.4,60.14440671383051,2025-04-28 20h00.23.232206 +0200,
block/CondBlock1.xlsx,You are about to start a block of type 1 trials.,38,38,0,Go,Go,0.13,0.05,0.2,space,blue,horizontal,space,0.7733088000095449,None,space,1,0.31192880001617596,None,,,,0,0,0,0,0,38,38,38,159.12709029996768,,,,,,,,,,,,,,,,159.11136609996902,159.12709029996768,159.8263661999954,159.8263661999954,160.3260424999753,160.31014459999278,160.3109651999548,160.3260424999753,160.45914960000664,160.65904120000778,160.65904120000778,160.9765337999561,space,1,0.31192880001617596,None,160.97966859996086,161.49177580000833,162.49096460000146,162.47478589997627,,,,,,,,,,,,,,,,,005,002,2025-04-28_20h00.13.043,Cued GoNogo Task,2024.2.4,60.14440671383051,2025-04-28 20h00.23.232206 +0200,
block/CondBlock1.xlsx,You are about to start a block of type 1 trials.,39,39,0,Go,Go,0.46,0.2,0.05,space,blue,vertical,space,0.7733088000095449,None,space,1,0.3443585999775678,None,,,,0,0,0,0,0,39,39,39,162.49096460000146,,,,,,,,,,,,,,,,162.47500529995887,162.49096460000146,163.19053610000992,163.19053610000992,163.68974669999443,163.6738213999779,163.67439880000893,163.68974669999443,164.15609209996182,164.33941099996446,164.33941099996446,164.69017670000903,space,1,0.3443585999775678,None,164.6935991999926,165.20527390000643,166.20459509996,166.1888957999763,,,,,,,,,,,,,,,,,005,002,2025-04-28_20h00.13.043,Cued GoNogo Task,2024.2.4,60.14440671383051,2025-04-28 20h00.23.232206 +0200,
block/CondBlock1.xlsx,You are about to start a block of type 1 trials.,40,40,0,Go,Go,0.29,0.2,0.05,space,blue,vertical,space,0.7733088000095449,None,space,1,0.35816559998784214,None,,,,0,0,0,0,0,40,40,40,166.20459509996,,,,,,,,,,,,,,,,166.18918499996653,166.20459509996,166.90392129996326,166.90392129996326,167.4034982000012,167.38775619998341,167.3884936000104,167.4034982000012,167.70339959999546,167.88633680000203,167.88633680000203,168.25398300000234,space,1,0.35816559998784214,None,168.257756099978,168.76908189995447,169.7682177000097,169.75210609997157,,,,,,,,,,,,,,,,,005,002,2025-04-28_20h00.13.043,Cued GoNogo Task,2024.2.4,60.14440671383051,2025-04-28 20h00.23.232206 +0200,
block/CondBlock1.xlsx,You are about to start a block of type 1 trials.,41,41,0,Go,Go,0.22,0.2,0.05,space,blue,vertical,space,0.7733088000095449,None,space,1,0.28359359997557476,None,,,,0,0,0,0,0,41,41,41,169.7682177000097,,,,,,,,,,,,,,,,169.7523434999748,169.7682177000097,170.46762249997118,170.46762249997118,170.9672110999818,170.9512057999964,170.95173289999366,170.9672110999818,171.2002921999665,171.38371419999748,171.38371419999748,171.66978279995965,space,1,0.28359359997557476,None,171.67391469998984,172.1829044999904,173.18211609998252,173.16642999998294,,,,,,,,,,,,,,,,,005,002,2025-04-28_20h00.13.043,Cued GoNogo Task,2024.2.4,60.14440671383051,2025-04-28 20h00.23.232206 +0200,
block/CondBlock1.xlsx,You are about to start a block of type 1 trials.,42,42,0,Go,Go,0.49,0.2,0.05,space,blue,vertical,space,0.7733088000095449,None,None,0,,,,,,0,0,0,0,0,42,42,42,173.18211609998252,,,,,,,,,,,,,,,,173.16681679995963,173.18211609998252,173.88150059996406,173.88150059996406,174.3811144999927,174.36543730000267,174.3662941000075,174.3811144999927,174.8806238999823,175.06387690000702,175.06387690000702,175.54764429997886,None,0,,,175.5514277999755,176.0629079999635,177.06229929998517,177.0463973999722,175.56356169999344,175.56356169999344,,,,,,,,,,,,,,,005,002,2025-04-28_20h00.13.043,Cued GoNogo Task,2024.2.4,60.14440671383051,2025-04-28 20h00.23.232206 +0200,
block/CondBlock1.xlsx,You are about to start a block of type 1 trials.,43,43,0,Go,Go,0.2,0.2,0.05,space,blue,vertical,space,0.7733088000095449,None,space,1,0.3022443999652751,None,,,,0,0,0,0,0,43,43,43,177.06229929998517,,,,,,,,,,,,,,,,177.04667670000345,177.06229929998517,177.7616291999584,177.7616291999584,178.26124999998137,178.2453991000075,178.24614889995428,178.26124999998137,178.46098169998731,178.66097349999472,178.66097349999472,178.97874549997505,space,1,0.3022443999652751,None,178.98256119998405,179.49347119999584,180.49270359997172,180.47656649997225,,,,,,,,,,,,,,,,,005,002,2025-04-28_20h00.13.043,Cued GoNogo Task,2024.2.4,60.14440671383051,2025-04-28 20h00.23.232206 +0200,
block/CondBlock1.xlsx,You are about to start a block of type 1 trials.,44,44,0,Go,Go,0.3,0.05,0.2,space,blue,horizontal,space,0.7733088000095449,None,space,1,0.34864060004474595,None,,,,0,0,0,0,0,44,44,44,180.49270359997172,,,,,,,,,,,,,,,,180.47680679999758,180.49270359997172,181.19228339998517,181.19228339998517,181.69176939997124,181.67586149997078,181.67653589998372,181.69176939997124,181.9916227000067,182.19122969999444,182.19122969999444,182.54316000000108,space,1,0.34864060004474595,None,182.5465290999855,183.0572677999735,184.05638749996433,184.04050389997428,,,,,,,,,,,,,,,,,005,002,2025-04-28_20h00.13.043,Cued GoNogo Task,2024.2.4,60.14440671383051,2025-04-28 20h00.23.232206 +0200,
block/CondBlock1.xlsx,You are about to start a block of type 1 trials.,45,45,0,NoGo,NoGo,0.21,0.05,0.2,none,green,horizontal,space,0.7733088000095449,None,None,1,,,,,,0,0,0,0,0,45,45,45,184.05638749996433,,,,,,,,,,,,,,,,184.04071539995493,184.05638749996433,184.75599789997796,184.75599789997796,185.25565710000228,185.2395750999567,185.24015450000297,185.25565710000228,185.4721079999581,185.6553622999927,185.6553622999927,186.13913169997977,None,1,,,186.14180389995454,186.65436149999732,187.65343849995406,187.63747169997077,186.1547863999731,186.1547863999731,,,,,,,,,,,,,,,005,002,2025-04-28_20h00.13.043,Cued GoNogo Task,2024.2.4,60.14440671383051,2025-04-28 20h00.23.232206 +0200,
block/CondBlock1.xlsx,You are about to start a block of type 1 trials.,46,46,0,NoGo,NoGo,0.45,0.05,0.2,none,blue,horizontal,space,0.7733088000095449,None,None,1,,,,,,0,0,0,0,0,46,46,46,187.65343849995406,,,,,,,,,,,,,,,,187.6377468999708,187.65343849995406,188.35286559996894,188.35286559996894,188.85255660000257,188.83644029998686,188.8369645999628,188.85255660000257,189.30212359997677,189.50213069998426,189.50213069998426,189.9854636999662,None,1,,,189.98589339997852,190.50111039995681,191.50034530000994,191.48447440000018,190.00169720000122,190.00169720000122,,,,,,,,,,,,,,,005,002,2025-04-28_20h00.13.043,Cued GoNogo Task,2024.2.4,60.14440671383051,2025-04-28 20h00.23.232206 +0200,
block/CondBlock1.xlsx,You are about to start a block of type 1 trials.,47,47,0,Go,Go,0.24,0.05,0.2,space,green,horizontal,space,0.7733088000095449,None,space,1,0.2873305000248365,None,,,,0,0,0,0,0,47,47,47,191.50034530000994,,,,,,,,,,,,,,,,191.48475389997475,191.50034530000994,192.1997418999672,192.1997418999672,192.69930609996663,192.68347739998717,192.68413919996237,192.69930609996663,192.94918130000588,193.13230870000552,193.13230870000552,193.4333753999672,space,1,0.2873305000248365,None,193.4372194999596,193.94829410000239,194.94752960000187,194.93169820000185,,,,,,,,,,,,,,,,,005,002,2025-04-28_20h00.13.043,Cued GoNogo Task,2024.2.4,60.14440671383051,2025-04-28 20h00.23.232206 +0200,
block/CondBlock1.xlsx,You are about to start a block of type 1 trials.,48,48,0,NoGo,NoGo,0.15,0.2,0.05,none,blue,vertical,space,0.7733088000095449,None,None,1,,,,,,0,0,0,0,0,48,48,48,194.94752960000187,,,,,,,,,,,,,,,,194.93199569999706,194.94752960000187,195.6471968999831,195.6471968999831,196.14658569998574,196.1306353000109,196.13129569997545,196.14658569998574,196.29643899999792,196.49627840000903,196.49627840000903,196.98000799998408,None,1,,,196.9829268999747,197.49545180000132,198.49450319999596,198.47827029996552,196.99581409996608,196.99581409996608,,,,,,,,,,,,,,,005,002,2025-04-28_20h00.13.043,Cued GoNogo Task,2024.2.4,60.14440671383051,2025-04-28 20h00.23.232206 +0200,
block/CondBlock1.xlsx,You are about to start a block of type 1 trials.,49,49,0,Go,Go,0.12,0.05,0.2,space,blue,horizontal,space,0.7733088000095449,None,space,1,0.3454779000021517,None,,,,0,0,0,0,0,49,49,49,198.49450319999596,,,,,,,,,,,,,,,,198.47847339999862,198.49450319999596,199.19416999997338,199.19416999997338,199.69351399998413,199.67765109997708,199.67836449999595,199.69351399998413,199.82675149996066,200.01005260000238,200.01005260000238,200.360941299994,space,1,0.3454779000021517,None,200.36534909997135,200.8760401000036,201.8751903999946,201.85948659997666,,,,,,,,,,,,,,,,,005,002,2025-04-28_20h00.13.043,Cued GoNogo Task,2024.2.4,60.14440671383051,2025-04-28 20h00.23.232206 +0200,
block/CondBlock1.xlsx,You are about to start a block of type 1 trials.,50,50,0,Go,Go,0.22,0.2,0.05,space,green,vertical,space,0.7733088000095449,None,space,1,0.39336980000371113,None,,,,0,0,0,0,0,50,50,50,201.8751903999946,,,,,,,,,,,,,,,,201.85980380000547,201.8751903999946,202.574567499978,202.574567499978,203.07411489996593,203.05828860000474,203.05891809996683,203.07411489996593,203.30711449997034,203.4903859999613,203.4903859999613,203.89096889999928,space,1,0.39336980000371113,None,203.8940318999812,204.40640889998758,205.40559029998258,205.38987999997335,,,,,,,,,,,,,,,,,005,002,2025-04-28_20h00.13.043,Cued GoNogo Task,2024.2.4,60.14440671383051,2025-04-28 20h00.23.232206 +0200,
block/CondBlock1.xlsx,You are about to start a block of type 1 trials.,51,51,0,Go,Go,0.28,0.05,0.2,space,green,horizontal,space,0.7733088000095449,None,space,1,0.30940709996502846,None,,,,0,0,0,0,0,51,51,51,205.40559029998258,,,,,,,,,,,,,,,,205.39020719996188,205.40559029998258,206.10493589995895,206.10493589995895,206.6048443999607,206.58863149996614,206.58931079995818,206.6048443999607,206.88773169997148,207.07092009996995,207.07092009996995,207.3886676999973,space,1,0.30940709996502846,None,207.39349940000102,207.90353279997362,208.90258599998197,208.886711500003,,,,,,,,,,,,,,,,,005,002,2025-04-28_20h00.13.043,Cued GoNogo Task,2024.2.4,60.14440671383051,2025-04-28 20h00.23.232206 +0200,
block/CondBlock1.xlsx,You are about to start a block of type 1 trials.,52,52,0,Go,Go,0.23,0.2,0.05,space,green,vertical,space,0.7733088000095449,None,space,1,0.3422226999537088,None,,,,0,0,0,0,0,52,52,52,208.90258599998197,,,,,,,,,,,,,,,,208.88695409998763,208.90258599998197,209.6021524000098,209.6021524000098,210.10197590000462,210.0856841999921,210.086252100009,210.10197590000462,210.3347907999996,210.51800429995637,210.51800429995637,210.86907119996613,space,1,0.3422226999537088,None,210.87294490000932,211.38391109998338,212.38321959995665,212.36720370000694,,,,,,,,,,,,,,,,,005,002,2025-04-28_20h00.13.043,Cued GoNogo Task,2024.2.4,60.14440671383051,2025-04-28 20h00.23.232206 +0200,
block/CondBlock1.xlsx,You are about to start a block of type 1 trials.,53,53,0,Go,Go,0.22,0.05,0.2,space,green,horizontal,space,0.7733088000095449,None,space,1,0.333347599953413,None,,,,0,0,0,0,0,53,53,53,212.38321959995665,,,,,,,,,,,,,,,,212.3674544999958,212.38321959995665,213.08257829997456,213.08257829997456,213.58222729997942,213.56635869998718,213.5668535999721,213.58222729997942,213.8152432999923,213.99852219998138,213.99852219998138,214.33467149996432,space,1,0.333347599953413,None,214.33871919999365,214.84789029997773,215.84711569995852,215.83113179996144,,,,,,,,,,,,,,,,,005,002,2025-04-28_20h00.13.043,Cued GoNogo Task,2024.2.4,60.14440671383051,2025-04-28 20h00.23.232206 +0200,
block/CondBlock1.xlsx,You are about to start a block of type 1 trials.,54,54,0,NoGo,NoGo,0.14,0.05,0.2,none,green,horizontal,space,0.7733088000095449,None,None,1,,,,,,0,0,0,0,0,54,54,54,215.84711569995852,,,,,,,,,,,,,,,,215.83142279996537,215.84711569995852,216.54653669998515,216.54653669998515,217.04582030000165,217.02982019999763,217.03033089998644,217.04582030000165,217.1959300999879,217.3789900999982,217.3789900999982,217.8628726999741,None,1,,,217.86634449998382,218.3782011999865,219.37743559997762,219.36186750000343,217.87859749997733,217.87859749997733,,,,,,,,,,,,,,,005,002,2025-04-28_20h00.13.043,Cued GoNogo Task,2024.2.4,60.14440671383051,2025-04-28 20h00.23.232206 +0200,
block/CondBlock1.xlsx,You are about to start a block of type 1 trials.,55,55,0,Go,Go,0.15,0.2,0.05,space,blue,vertical,space,0.7733088000095449,None,space,1,0.2855802000267431,None,,,,0,0,0,0,0,55,55,55,219.37743559997762,,,,,,,,,,,,,,,,219.36221619998105,219.37743559997762,220.07683749997523,220.07683749997523,220.57638719998067,220.5603041999857,220.56087849999312,220.57638719998067,220.726310500002,220.92618710000534,220.92618710000534,221.227058199991,space,1,0.2855802000267431,None,221.2316342999693,221.74220269999932,222.74132809997536,222.72513829998206,,,,,,,,,,,,,,,,,005,002,2025-04-28_20h00.13.043,Cued GoNogo Task,2024.2.4,60.14440671383051,2025-04-28 20h00.23.232206 +0200,
block/CondBlock1.xlsx,You are about to start a block of type 1 trials.,56,56,0,Go,Go,0.47,0.2,0.05,space,blue,vertical,space,0.7733088000095449,None,space,1,0.30893790000118315,None,,,,0,0,0,0,0,56,56,56,222.74132809997536,,,,,,,,,,,,,,,,222.7253330000094,222.74132809997536,223.4407917999779,223.4407917999779,223.94031739997445,223.92452269996284,223.92531749996124,223.94031739997445,224.42348329996457,224.6064298999845,224.6064298999845,224.92381399997976,space,1,0.30893790000118315,None,224.92698990000645,225.43908759998158,226.43816039996454,226.42220939998515,,,,,,,,,,,,,,,,,005,002,2025-04-28_20h00.13.043,Cued GoNogo Task,2024.2.4,60.14440671383051,2025-04-28 20h00.23.232206 +0200,
block/CondBlock1.xlsx,You are about to start a block of type 1 trials.,57,57,0,NoGo,NoGo,0.42,0.2,0.05,none,green,vertical,space,0.7733088000095449,None,None,1,,,,,,0,0,0,0,0,57,57,57,226.43816039996454,,,,,,,,,,,,,,,,226.42243779997807,226.43816039996454,227.13762549997773,227.13762549997773,227.63731369999005,227.62182989995927,227.62271759996656,227.63731369999005,228.0702317999676,228.2535576999653,228.2535576999653,228.73703329998534,None,1,,,228.73916489997646,229.25250639999285,230.25184449995868,230.23611850000452,228.753113499959,228.753113499959,,,,,,,,,,,,,,,005,002,2025-04-28_20h00.13.043,Cued GoNogo Task,2024.2.4,60.14440671383051,2025-04-28 20h00.23.232206 +0200,
block/CondBlock1.xlsx,You are about to start a block of type 1 trials.,58,58,0,Go,Go,0.22,0.05,0.2,space,green,horizontal,space,0.7733088000095449,None,space,1,0.29791950003709644,None,,,,0,0,0,0,0,58,58,58,230.25184449995868,,,,,,,,,,,,,,,,230.2364589999779,230.25184449995868,230.95129379996797,230.95129379996797,231.45090579998214,231.4349455999909,231.43558529997244,231.45090579998214,231.68399879999924,231.8671126999543,231.8671126999543,232.16919240000425,space,1,0.29791950003709644,None,232.17363320000004,232.68328140000813,233.6823153999867,233.66627369995695,,,,,,,,,,,,,,,,,005,002,2025-04-28_20h00.13.043,Cued GoNogo Task,2024.2.4,60.14440671383051,2025-04-28 20h00.23.232206 +0200,
block/CondBlock1.xlsx,You are about to start a block of type 1 trials.,59,59,0,Go,Go,0.3,0.2,0.05,space,blue,vertical,space,0.7733088000095449,None,space,1,0.29597979999380186,None,,,,0,0,0,0,0,59,59,59,233.6823153999867,,,,,,,,,,,,,,,,233.6664960999624,233.6823153999867,234.38189769996097,234.38189769996097,234.88137429999188,234.8651939999545,234.86573540000245,234.88137429999188,235.1811175000039,235.38094259996433,235.38094259996433,235.68202089995611,space,1,0.29597979999380186,None,235.68576119997306,236.19694239995442,237.19630319997668,237.18029309995472,,,,,,,,,,,,,,,,,005,002,2025-04-28_20h00.13.043,Cued GoNogo Task,2024.2.4,60.14440671383051,2025-04-28 20h00.23.232206 +0200,
block/CondBlock1.xlsx,You are about to start a block of type 1 trials.,60,60,0,NoGo,NoGo,0.24,0.2,0.05,none,blue,vertical,space,0.7733088000095449,None,space,0,0.28803769999649376,None,,,,0,0,0,0,0,60,60,60,237.19630319997668,,,,,,,,,,,,,,,,237.1806113999919,237.19630319997668,237.89557399996556,237.89557399996556,238.39522690000013,238.37929829995846,238.38010839995695,238.39522690000013,238.6448807999841,238.82814239995787,238.82814239995787,239.12884660001146,space,0,0.28803769999649376,None,239.13285019999603,239.64400739996927,240.6433846,240.62717220000923,,,,,,,,,,,,,,,,,005,002,2025-04-28_20h00.13.043,Cued GoNogo Task,2024.2.4,60.14440671383051,2025-04-28 20h00.23.232206 +0200,
block/CondBlock1.xlsx,You are about to start a block of type 1 trials.,61,61,0,NoGo,NoGo,0.1,0.2,0.05,none,green,vertical,space,0.7733088000095449,None,None,1,,,,,,0,0,0,0,0,61,61,61,240.6433846,,,,,,,,,,,,,,,,240.62741089996416,240.6433846,241.3428850999917,241.3428850999917,241.8421750999987,241.8267539999797,241.82762469997397,241.8421750999987,241.94219450000674,242.14206829998875,242.14206829998875,242.62615919997916,None,1,,,242.629809200007,243.14137159998063,244.1403209999553,244.12443480000366,242.6415845999727,242.6415845999727,,,,,,,,,,,,,,,005,002,2025-04-28_20h00.13.043,Cued GoNogo Task,2024.2.4,60.14440671383051,2025-04-28 20h00.23.232206 +0200,
block/CondBlock1.xlsx,You are about to start a block of type 1 trials.,62,62,0,Go,Go,0.45,0.05,0.2,space,blue,horizontal,space,0.7733088000095449,None,space,1,0.34236750000854954,None,,,,0,0,0,0,0,62,62,62,244.1403209999553,,,,,,,,,,,,,,,,244.12473909999244,244.1403209999553,244.83980449999217,244.83980449999217,245.3394266999676,245.32343029999174,245.3239229999599,245.3394266999676,245.7890558000072,245.98876279999968,245.98876279999968,246.3399720999878,space,1,0.34236750000854954,None,246.3438376999693,246.85494579997612,247.854096999974,247.83826559997397,,,,,,,,,,,,,,,,,005,002,2025-04-28_20h00.13.043,Cued GoNogo Task,2024.2.4,60.14440671383051,2025-04-28 20h00.23.232206 +0200,
block/CondBlock1.xlsx,You are about to start a block of type 1 trials.,63,63,0,Go,Go,0.1,0.05,0.2,space,green,horizontal,space,0.7733088000095449,None,space,1,0.402554800035432,None,,,,0,0,0,0,0,63,63,63,247.854096999974,,,,,,,,,,,,,,,,247.83856959996046,247.854096999974,248.55339459999232,248.55339459999232,249.05299399996875,249.03706919995602,249.0376394999912,249.05299399996875,249.1528989999788,249.35293309995905,249.35293309995905,249.7700618999661,space,1,0.402554800035432,None,249.77351759996964,250.28531219996512,251.28446769999573,251.26845769997453,,,,,,,,,,,,,,,,,005,002,2025-04-28_20h00.13.043,Cued GoNogo Task,2024.2.4,60.14440671383051,2025-04-28 20h00.23.232206 +0200,
block/CondBlock1.xlsx,You are about to start a block of type 1 trials.,64,64,0,Go,Go,0.19,0.05,0.2,space,blue,horizontal,space,0.7733088000095449,None,space,1,0.3530789000215009,None,,,,0,0,0,0,0,64,64,64,251.28446769999573,,,,,,,,,,,,,,,,251.26867309998488,251.28446769999573,251.983989499975,251.983989499975,252.48358669999288,252.46796769998036,252.4687217999599,252.48358669999288,252.68351419997634,252.86656589998165,252.86656589998165,253.2341776000103,space,1,0.3530789000215009,None,253.2388776000007,253.74906100000953,254.74830959999235,254.7324038000079,,,,,,,,,,,,,,,,,005,002,2025-04-28_20h00.13.043,Cued GoNogo Task,2024.2.4,60.14440671383051,2025-04-28 20h00.23.232206 +0200,
block/CondBlock1.xlsx,You are about to start a block of type 1 trials.,65,65,0,Go,Go,0.21,0.2,0.05,space,blue,vertical,space,0.7733088000095449,None,space,1,0.3371013000141829,None,,,,0,0,0,0,0,65,65,65,254.74830959999235,,,,,,,,,,,,,,,,254.73270940000657,254.74830959999235,255.44772219995502,255.44772219995502,255.94749669998419,255.93127110000933,255.93188349995762,255.94749669998419,256.16386239998974,256.3469757999992,256.3469757999992,256.69799670000793,space,1,0.3371013000141829,None,256.701840099995,257.2128458999796,258.21214849996613,258.19639489997644,,,,,,,,,,,,,,,,,005,002,2025-04-28_20h00.13.043,Cued GoNogo Task,2024.2.4,60.14440671383051,2025-04-28 20h00.23.232206 +0200,
block/CondBlock1.xlsx,You are about to start a block of type 1 trials.,66,66,0,Go,Go,0.18,0.05,0.2,space,blue,horizontal,space,0.7733088000095449,None,space,1,0.36173479998251423,None,,,,0,0,0,0,0,66,66,66,258.21214849996613,,,,,,,,,,,,,,,,258.19677599996794,258.21214849996613,258.9115090999985,258.9115090999985,259.4114141999744,259.39534429996274,259.39598309999565,259.4114141999744,259.5945248999633,259.77755499997875,259.77755499997875,260.14497560000746,space,1,0.36173479998251423,None,260.14875789999496,260.66015099996,261.65950020001037,261.64337119995616,,,,,,,,,,,,,,,,,005,002,2025-04-28_20h00.13.043,Cued GoNogo Task,2024.2.4,60.14440671383051,2025-04-28 20h00.23.232206 +0200,
block/CondBlock1.xlsx,You are about to start a block of type 1 trials.,67,67,0,Go,Go,0.29,0.2,0.05,space,green,vertical,space,0.7733088000095449,None,space,1,0.39069030003156513,None,,,,0,0,0,0,0,67,67,67,261.65950020001037,,,,,,,,,,,,,,,,261.6437506999937,261.65950020001037,262.35885269998107,262.35885269998107,262.85852750000777,262.84229299996514,262.84287349996157,262.85852750000777,263.15803839999717,263.3411666000029,263.3411666000029,263.742029099958,space,1,0.39069030003156513,None,263.7465669999947,264.2571622999967,265.2564606000087,265.2405276999925,,,,,,,,,,,,,,,,,005,002,2025-04-28_20h00.13.043,Cued GoNogo Task,2024.2.4,60.14440671383051,2025-04-28 20h00.23.232206 +0200,
block/CondBlock1.xlsx,You are about to start a block of type 1 trials.,68,68,0,NoGo,NoGo,0.24,0.2,0.05,none,blue,vertical,space,0.7733088000095449,None,None,1,,,,,,0,0,0,0,0,68,68,68,265.2564606000087,,,,,,,,,,,,,,,,265.2408707999857,265.2564606000087,265.95575560000725,265.95575560000725,266.4552668000106,266.43939580000006,266.43996399996104,266.4552668000106,266.7052030999912,266.8882091999985,266.8882091999985,267.37221519998275,None,1,,,267.375859999971,267.8876835000119,268.88671029999387,268.870932299993,267.38797599996906,267.38797599996906,,,,,,,,,,,,,,,005,002,2025-04-28_20h00.13.043,Cued GoNogo Task,2024.2.4,60.14440671383051,2025-04-28 20h00.23.232206 +0200,
block/CondBlock1.xlsx,You are about to start a block of type 1 trials.,69,69,0,Go,Go,0.27,0.05,0.2,space,green,horizontal,space,0.7733088000095449,None,space,1,0.34716730000218377,None,,,,0,0,0,0,0,69,69,69,268.88671029999387,,,,,,,,,,,,,,,,268.87124269997,268.88671029999387,269.5861777999671,269.5861777999671,270.0858549000113,270.069699899992,270.07025409996277,270.0858549000113,270.3690419999766,270.5519550999743,270.5519550999743,270.90333499998087,space,1,0.34716730000218377,None,270.9094311000081,271.4178105999599,272.41709850000916,272.4012402999797,,,,,,,,,,,,,,,,,005,002,2025-04-28_20h00.13.043,Cued GoNogo Task,2024.2.4,60.14440671383051,2025-04-28 20h00.23.232206 +0200,
block/CondBlock1.xlsx,You are about to start a block of type 1 trials.,70,70,0,Go,Go,0.25,0.2,0.05,space,green,vertical,space,0.7733088000095449,None,None,0,,,,,,0,0,0,0,0,70,70,70,272.41709850000916,,,,,,,,,,,,,,,,272.4015948000015,272.41709850000916,273.1165951999719,273.1165951999719,273.6161973999697,273.60023509996245,273.6007710999693,273.6161973999697,273.8660136999679,274.06573909998406,274.06573909998406,274.54973849997623,None,0,,,274.55308479996165,275.0650631999597,276.06406840001,276.0484524999629,274.5652709999704,274.5652709999704,,,,,,,,,,,,,,,005,002,2025-04-28_20h00.13.043,Cued GoNogo Task,2024.2.4,60.14440671383051,2025-04-28 20h00.23.232206 +0200,
block/CondBlock1.xlsx,You are about to start a block of type 1 trials.,71,71,0,Go,Go,0.28,0.05,0.2,space,green,horizontal,space,0.7733088000095449,None,space,1,0.44309429998975247,None,,,,0,0,0,0,0,71,71,71,276.06406840001,,,,,,,,,,,,,,,,276.04876949999016,276.06406840001,276.763527299976,276.763527299976,277.2631549999933,277.2471066999715,277.2476771000074,277.2631549999933,277.5461442999658,277.72913079999853,277.72913079999853,278.1802090999554,space,1,0.44309429998975247,None,278.18350799998734,278.69529870001134,279.6944695999846,279.6784470999846,,,,,,,,,,,,,,,,,005,002,2025-04-28_20h00.13.043,Cued GoNogo Task,2024.2.4,60.14440671383051,2025-04-28 20h00.23.232206 +0200,
block/CondBlock1.xlsx,You are about to start a block of type 1 trials.,72,72,0,Go,Go,0.14,0.05,0.2,space,blue,horizontal,space,0.7733088000095449,None,space,1,0.37776609999127686,None,,,,0,0,0,0,0,72,72,72,279.6944695999846,,,,,,,,,,,,,,,,279.6786859999993,279.6944695999846,280.3939585000044,280.3939585000044,280.8933878999669,280.8778563999804,280.87861839996185,280.8933878999669,281.0436336999992,281.2264737999649,281.2264737999649,281.6107612999622,space,1,0.37776609999127686,None,281.6147305999766,282.1258441999671,283.12502239999594,283.10902739997255,,,,,,,,,,,,,,,,,005,002,2025-04-28_20h00.13.043,Cued GoNogo Task,2024.2.4,60.14440671383051,2025-04-28 20h00.23.232206 +0200,
block/CondBlock1.xlsx,You are about to start a block of type 1 trials.,73,73,0,Go,Go,0.11,0.05,0.2,space,blue,horizontal,space,0.7733088000095449,None,space,1,0.39653440000256523,None,,,,0,0,0,0,0,73,73,73,283.12502239999594,,,,,,,,,,,,,,,,283.1093509999919,283.12502239999594,283.824488299957,283.824488299957,284.32398709998233,284.30797909997636,284.3085157999885,284.32398709998233,284.4407438999624,284.6237453999929,284.6237453999929,285.0244162000017,space,1,0.39653440000256523,None,285.02785169996787,285.5402900999761,,286.5391736999736,,,,,,,,,,,,,,,,,005,002,2025-04-28_20h00.13.043,Cued GoNogo Task,2024.2.4,60.14440671383051,2025-04-28 20h00.23.232206 +0200,
block/CondBlock1.xlsx,You are about to start a block of type 1 trials.,74,74,0,Go,Go,0.22,0.2,0.05,space,blue,vertical,space,0.7733088000095449,None,space,1,0.4012280000024475,None,,,,0,0,0,0,0,74,74,74,286.5556144999573,,,,,,,,,,,,,,,,286.53961649996927,286.5556144999573,287.2382395999739,287.25500099995406,287.73781019996386,287.7222165999701,287.722994599957,287.73781019996386,287.97103029995924,288.15438439999707,288.15438439999707,288.5719300999772,space,1,0.4012280000024475,None,288.5764258999843,289.0867703999975,290.0859768000082,290.0697740999749,,,,,,,,,,,,,,,,,005,002,2025-04-28_20h00.13.043,Cued GoNogo Task,2024.2.4,60.14440671383051,2025-04-28 20h00.23.232206 +0200,
block/CondBlock1.xlsx,You are about to start a block of type 1 trials.,75,75,0,Go,Go,0.26,0.05,0.2,space,blue,horizontal,space,0.7733088000095449,None,space,1,0.34121099999174476,None,,,,0,0,0,0,0,75,75,75,290.0859768000082,,,,,,,,,,,,,,,,290.0699734999798,290.0859768000082,290.785298999981,290.785298999981,291.28487129998393,291.2690020999871,291.26960719999624,291.28487129998393,291.55128069996135,291.7345620999695,291.7345620999695,292.08557409996865,space,1,0.34121099999174476,None,292.09010289999424,292.60045189998345,293.5998387999716,293.58399789995747,,,,,,,,,,,,,,,,,005,002,2025-04-28_20h00.13.043,Cued GoNogo Task,2024.2.4,60.14440671383051,2025-04-28 20h00.23.232206 +0200,
block/CondBlock1.xlsx,You are about to start a block of type 1 trials.,76,76,0,Go,Go,0.14,0.2,0.05,space,green,vertical,space,0.7733088000095449,None,space,1,0.32020409998949617,None,,,,0,0,0,0,0,76,76,76,293.5998387999716,,,,,,,,,,,,,,,,293.58417409996036,293.5998387999716,294.2990943999612,294.2990943999612,294.7987237999914,294.782982899982,294.7837816000101,294.7987237999914,294.94884219998494,295.1316610999638,295.1316610999638,295.46577419998357,space,1,0.32020409998949617,None,295.4698011999717,295.9809060000116,296.9803369999863,296.96443849999923,,,,,,,,,,,,,,,,,005,002,2025-04-28_20h00.13.043,Cued GoNogo Task,2024.2.4,60.14440671383051,2025-04-28 20h00.23.232206 +0200,
block/CondBlock1.xlsx,You are about to start a block of type 1 trials.,77,77,0,Go,Go,0.18,0.05,0.2,space,green,horizontal,space,0.7733088000095449,None,space,1,0.41809779999312013,None,,,,0,0,0,0,0,77,77,77,296.9803369999863,,,,,,,,,,,,,,,,296.9647650999832,296.9803369999863,297.6797423000098,297.6797423000098,298.1791011999594,298.16318450000836,298.1637711999938,298.1791011999594,298.3625797999557,298.54572900000494,298.54572900000494,298.9794976999983,space,1,0.41809779999312013,None,298.98264529998414,299.4948629999999,300.49412260000827,300.4779137999867,,,,,,,,,,,,,,,,,005,002,2025-04-28_20h00.13.043,Cued GoNogo Task,2024.2.4,60.14440671383051,2025-04-28 20h00.23.232206 +0200,
block/CondBlock1.xlsx,You are about to start a block of type 1 trials.,78,78,0,NoGo,NoGo,0.27,0.05,0.2,none,blue,horizontal,space,0.7733088000095449,None,None,1,,,,,,0,0,0,0,0,78,78,78,300.49412260000827,,,,,,,,,,,,,,,,300.478132899967,300.49412260000827,301.19334629998775,301.19334629998775,301.6930454999674,301.6774184000096,301.67801289999625,301.6930454999674,301.9761415999965,302.15942340000765,302.15942340000765,302.64329179999186,None,1,,,302.64657270000316,303.1585764999618,304.15772009996,304.1418870000052,302.6589818999637,302.6589818999637,,,,,,,,,,,,,,,005,002,2025-04-28_20h00.13.043,Cued GoNogo Task,2024.2.4,60.14440671383051,2025-04-28 20h00.23.232206 +0200,
block/CondBlock1.xlsx,You are about to start a block of type 1 trials.,79,79,0,NoGo,NoGo,0.26,0.2,0.05,none,blue,vertical,space,0.7733088000095449,None,space,0,0.26217870000982657,None,,,,0,0,0,0,0,79,79,79,304.15772009996,,,,,,,,,,,,,,,,304.142234799976,304.15772009996,304.8570517000044,304.8570517000044,305.356689999986,305.3412900000112,305.3422014999669,305.356689999986,305.6231056000106,305.8064849000075,305.8064849000075,306.0739962999942,space,0,0.26217870000982657,None,306.07879289996345,306.58916029997636,307.5883765000035,307.572722199955,,,,,,,,,,,,,,,,,005,002,2025-04-28_20h00.13.043,Cued GoNogo Task,2024.2.4,60.14440671383051,2025-04-28 20h00.23.232206 +0200,
block/CondBlock1.xlsx,You are about to start a block of type 1 trials.,80,80,0,Go,Go,0.22,0.2,0.05,space,green,vertical,space,0.7733088000095449,None,space,1,0.34495030000107363,None,,,,0,0,0,0,0,80,80,80,307.5883765000035,,,,,,,,,,,,,,,,307.5730525999679,307.5883765000035,308.28774179995526,308.28774179995526,308.78727919998346,308.7710328999674,308.77150859998073,308.78727919998346,309.020335899957,309.20370159996673,309.20370159996673,309.5543332999805,space,1,0.34495030000107363,None,309.55794679996325,310.0695445999736,311.0688991000061,311.0530258999788,,,,,,,,,,,,,,,,,005,002,2025-04-28_20h00.13.043,Cued GoNogo Task,2024.2.4,60.14440671383051,2025-04-28 20h00.23.232206 +0200,
block/CondBlock1.xlsx,You are about to start a block of type 1 trials.,81,81,0,Go,Go,0.5,0.2,0.05,space,green,vertical,space,0.7733088000095449,None,space,1,0.39612059999490157,None,,,,0,0,0,0,0,81,81,81,311.0688991000061,,,,,,,,,,,,,,,,311.05342479998944,311.0688991000061,311.7679914999753,311.7679914999753,312.2677309999708,312.25173640000867,312.25232609995874,312.2677309999708,312.7672220999957,312.9671416999772,312.9671416999772,313.3684150999761,space,1,0.39612059999490157,None,313.3733723000041,313.8829218999599,314.8823653999716,314.8666852999595,,,,,,,,,,,,,,,,,005,002,2025-04-28_20h00.13.043,Cued GoNogo Task,2024.2.4,60.14440671383051,2025-04-28 20h00.23.232206 +0200,
block/CondBlock1.xlsx,You are about to start a block of type 1 trials.,82,82,0,Go,Go,0.43,0.05,0.2,space,green,horizontal,space,0.7733088000095449,None,space,1,0.36993609997443855,None,,,,0,0,0,0,0,82,82,82,314.8823653999716,,,,,,,,,,,,,,,,314.8669216999551,314.8823653999716,315.581555199984,315.581555199984,316.0812888999935,316.0652548999642,316.06586229999084,316.0812888999935,316.5141325999866,316.71400609996635,316.71400609996635,317.0978463999927,space,1,0.36993609997443855,None,317.10091739997733,317.6133768999716,318.6123275999562,318.59695989999454,,,,,,,,,,,,,,,,,005,002,2025-04-28_20h00.13.043,Cued GoNogo Task,2024.2.4,60.14440671383051,2025-04-28 20h00.23.232206 +0200,
block/CondBlock1.xlsx,You are about to start a block of type 1 trials.,83,83,0,Go,Go,0.25,0.2,0.05,space,green,vertical,space,0.7733088000095449,None,space,1,0.36705180001445115,None,,,,0,0,0,0,0,83,83,83,318.6123275999562,,,,,,,,,,,,,,,,318.5973773999722,318.6123275999562,319.3118008999736,319.3118008999736,319.8113286999869,319.795458699984,319.7961077999789,319.8113286999869,320.06128199998057,320.2610866999603,320.2610866999603,320.6456046999665,space,1,0.36705180001445115,None,320.64913129998604,321.1603747999761,322.15955919999396,322.1435268999776,,,,,,,,,,,,,,,,,005,002,2025-04-28_20h00.13.043,Cued GoNogo Task,2024.2.4,60.14440671383051,2025-04-28 20h00.23.232206 +0200,
block/CondBlock1.xlsx,You are about to start a block of type 1 trials.,84,84,0,NoGo,NoGo,0.14,0.2,0.05,none,green,vertical,space,0.7733088000095449,None,None,1,,,,,,0,0,0,0,0,84,84,84,322.15955919999396,,,,,,,,,,,,,,,,322.1437530000112,322.15955919999396,322.85906649997924,322.85906649997924,323.35852239996893,323.342742000008,323.3433776999591,323.35852239996893,323.5083818999701,323.6916213000077,323.6916213000077,324.17534179997165,None,1,,,324.1777591999853,324.6907464999822,325.689888999972,325.6741724999738,324.19123870000476,324.19123870000476,,,,,,,,,,,,,,,005,002,2025-04-28_20h00.13.043,Cued GoNogo Task,2024.2.4,60.14440671383051,2025-04-28 20h00.23.232206 +0200,
block/CondBlock1.xlsx,You are about to start a block of type 1 trials.,85,85,0,Go,Go,0.2,0.05,0.2,space,blue,horizontal,space,0.7733088000095449,None,space,1,0.2911250000470318,None,,,,0,0,0,0,0,85,85,85,325.689888999972,,,,,,,,,,,,,,,,325.6744790999801,325.689888999972,326.38938919996144,326.38938919996144,326.8890443999553,326.87339399999473,326.87416700000176,326.8890443999553,327.0888283000095,327.28857909998624,327.28857909998624,327.58954119996633,space,1,0.2911250000470318,None,327.5934733999893,328.10464089998277,329.10375710000517,329.08778279996477,,,,,,,,,,,,,,,,,005,002,2025-04-28_20h00.13.043,Cued GoNogo Task,2024.2.4,60.14440671383051,2025-04-28 20h00.23.232206 +0200,
block/CondBlock1.xlsx,You are about to start a block of type 1 trials.,86,86,0,Go,Go,0.16,0.2,0.05,space,blue,vertical,space,0.7733088000095449,None,space,1,0.43157590000191703,None,,,,0,0,0,0,0,86,86,86,329.10375710000517,,,,,,,,,,,,,,,,329.0879917999846,329.10375710000517,329.8033624999807,329.8033624999807,330.302925099968,330.28719830000773,330.28774439997505,330.302925099968,330.46936250000726,330.65265870001167,330.65265870001167,331.0872163999593,space,1,0.43157590000191703,None,331.09136389999185,331.60174239997286,332.6011190999998,332.5850838999613,,,,,,,,,,,,,,,,,005,002,2025-04-28_20h00.13.043,Cued GoNogo Task,2024.2.4,60.14440671383051,2025-04-28 20h00.23.232206 +0200,
block/CondBlock1.xlsx,You are about to start a block of type 1 trials.,87,87,0,Go,Go,0.41,0.2,0.05,space,green,vertical,space,0.7733088000095449,None,space,1,0.4035728999879211,None,,,,0,0,0,0,0,87,87,87,332.6011190999998,,,,,,,,,,,,,,,,332.58540959999664,332.6011190999998,333.3002984999912,333.3002984999912,333.7999649999547,333.78411959996447,333.78470819996437,333.7999649999547,334.21640219999244,334.3995775000076,334.3995775000076,334.8166363000055,space,1,0.4035728999879211,None,334.8201704999665,335.3320811999729,336.3312603000086,336.3156382999732,,,,,,,,,,,,,,,,,005,002,2025-04-28_20h00.13.043,Cued GoNogo Task,2024.2.4,60.14440671383051,2025-04-28 20h00.23.232206 +0200,
block/CondBlock1.xlsx,You are about to start a block of type 1 trials.,88,88,0,NoGo,NoGo,0.15,0.2,0.05,none,green,vertical,space,0.7733088000095449,None,None,1,,,,,,0,0,0,0,0,88,88,88,336.3312603000086,,,,,,,,,,,,,,,,336.3160191999632,336.3312603000086,337.03064879996236,337.03064879996236,337.53030389995547,337.51415629999246,337.51472109998576,337.53030389995547,337.6802092999569,337.88008589996025,337.88008589996025,338.36365159996785,None,1,,,338.3660722000059,338.8791093999753,339.87825389998034,339.86237579997396,338.3796370999771,338.3796370999771,,,,,,,,,,,,,,,005,002,2025-04-28_20h00.13.043,Cued GoNogo Task,2024.2.4,60.14440671383051,2025-04-28 20h00.23.232206 +0200,
block/CondBlock1.xlsx,You are about to start a block of type 1 trials.,89,89,0,Go,Go,0.24,0.05,0.2,space,blue,horizontal,space,0.7733088000095449,None,space,1,0.28560210001887754,None,,,,0,0,0,0,0,89,89,89,339.87825389998034,,,,,,,,,,,,,,,,339.8626203999738,339.87825389998034,340.5775825000019,340.5775825000019,341.0775027999771,341.06133999995654,341.0619410999934,341.0775027999771,341.32707780000055,341.5104328999878,341.5104328999878,341.81072969996603,space,1,0.28560210001887754,None,341.81472979998216,342.326281799993,343.32547679997515,343.3099629000062,,,,,,,,,,,,,,,,,005,002,2025-04-28_20h00.13.043,Cued GoNogo Task,2024.2.4,60.14440671383051,2025-04-28 20h00.23.232206 +0200,
block/CondBlock1.xlsx,You are about to start a block of type 1 trials.,90,90,0,Go,Go,0.25,0.2,0.05,space,blue,vertical,space,0.7733088000095449,None,space,1,0.42232239997247234,None,,,,0,0,0,0,0,90,90,90,343.32547679997515,,,,,,,,,,,,,,,,343.31048639997607,343.32547679997515,344.02488649997395,344.02488649997395,344.5245455999975,344.5090701999725,344.50980090000667,344.5245455999975,344.77422439999646,344.9741123999702,344.9741123999702,345.4080917999963,space,1,0.42232239997247234,None,345.4116267999634,345.923480700003,346.9224782999954,346.90658029995393,,,,,,,,,,,,,,,,,005,002,2025-04-28_20h00.13.043,Cued GoNogo Task,2024.2.4,60.14440671383051,2025-04-28 20h00.23.232206 +0200,
block/CondBlock1.xlsx,You are about to start a block of type 1 trials.,91,91,0,Go,Go,0.26,0.05,0.2,space,green,horizontal,space,0.7733088000095449,None,space,1,0.31233110005268827,None,,,,0,0,0,0,0,91,91,91,346.9224782999954,,,,,,,,,,,,,,,,346.9068070999929,346.9224782999954,347.6219764999696,347.6219764999696,348.1214981999947,348.105546799954,348.1063752999762,348.1214981999947,348.38798169995425,348.5712771000108,348.5712771000108,348.88872739998624,space,1,0.31233110005268827,None,348.89297849999275,349.4037998999702,350.4029612999875,350.3875684000086,,,,,,,,,,,,,,,,,005,002,2025-04-28_20h00.13.043,Cued GoNogo Task,2024.2.4,60.14440671383051,2025-04-28 20h00.23.232206 +0200,
block/CondBlock1.xlsx,You are about to start a block of type 1 trials.,92,92,0,NoGo,NoGo,0.44,0.2,0.05,none,blue,vertical,space,0.7733088000095449,None,None,1,,,,,,0,0,0,0,0,92,92,92,350.4029612999875,,,,,,,,,,,,,,,,350.3878589000087,350.4029612999875,351.10235020000255,351.10235020000255,351.6019914000062,351.58575550001115,351.58631839999,351.6019914000062,352.05147269996814,352.23487389995717,352.23487389995717,352.7185867999797,None,1,,,352.7210409999825,353.2338332000072,354.2331993999542,354.21718789997976,352.7343881999841,352.7343881999841,,,,,,,,,,,,,,,005,002,2025-04-28_20h00.13.043,Cued GoNogo Task,2024.2.4,60.14440671383051,2025-04-28 20h00.23.232206 +0200,
block/CondBlock1.xlsx,You are about to start a block of type 1 trials.,93,93,0,Go,Go,0.13,0.2,0.05,space,green,vertical,space,0.7733088000095449,None,space,1,0.3837490999721922,None,,,,0,0,0,0,0,93,93,93,354.2331993999542,,,,,,,,,,,,,,,,354.21743839996634,354.2331993999542,354.93247770000016,354.93247770000016,355.4322957000113,355.4161739999545,355.41683949995786,355.4322957000113,355.56539010000415,355.7484758999781,355.7484758999781,356.149370500003,space,1,0.3837490999721922,None,356.1530935000046,356.6645826000022,357.663760299969,357.6476827999577,,,,,,,,,,,,,,,,,005,002,2025-04-28_20h00.13.043,Cued GoNogo Task,2024.2.4,60.14440671383051,2025-04-28 20h00.23.232206 +0200,
block/CondBlock1.xlsx,You are about to start a block of type 1 trials.,94,94,0,Go,Go,0.44,0.05,0.2,space,blue,horizontal,space,0.7733088000095449,None,space,1,0.451643799955491,None,,,,0,0,0,0,0,94,94,94,357.663760299969,,,,,,,,,,,,,,,,357.64798169996357,357.663760299969,358.363132199971,358.363132199971,358.86273519997485,358.84660519997124,358.8471961999894,358.86273519997485,359.3123113999609,359.4954707999714,359.4954707999714,359.962888799957,space,1,0.451643799955491,None,359.96750929998234,360.4782991000102,361.4772169999778,361.4614278000081,,,,,,,,,,,,,,,,,005,002,2025-04-28_20h00.13.043,Cued GoNogo Task,2024.2.4,60.14440671383051,2025-04-28 20h00.23.232206 +0200,
block/CondBlock1.xlsx,You are about to start a block of type 1 trials.,95,95,0,Go,Go,0.15,0.2,0.05,space,green,vertical,space,0.7733088000095449,None,space,1,0.4337653999682516,None,,,,0,0,0,0,0,95,95,95,361.4772169999778,,,,,,,,,,,,,,,,361.46168609999586,361.4772169999778,362.17710400000215,362.17710400000215,362.67616169998655,362.66038640000625,362.66107789997477,362.67616169998655,362.82619170000544,363.0258685000008,363.0258685000008,363.47697889996925,space,1,0.4337653999682516,None,363.4803647999652,363.99187589995563,364.99105439998675,364.9752286999719,,,,,,,,,,,,,,,,,005,002,2025-04-28_20h00.13.043,Cued GoNogo Task,2024.2.4,60.14440671383051,2025-04-28 20h00.23.232206 +0200,
block/CondBlock1.xlsx,You are about to start a block of type 1 trials.,96,96,0,Go,Go,0.49,0.2,0.05,space,green,vertical,space,0.7733088000095449,None,space,1,0.34790090000024065,None,,,,0,0,0,0,0,96,96,96,364.99105439998675,,,,,,,,,,,,,,,,364.9754983999883,364.99105439998675,365.6905242999783,365.6905242999783,366.19011969998246,366.174003299966,366.1746247999836,366.19011969998246,366.68966019997606,366.87273289996665,366.87273289996665,367.2240726999589,space,1,0.34790090000024065,None,367.2283846999635,367.73880739999004,368.7380646999809,368.72221629996784,,,,,,,,,,,,,,,,,005,002,2025-04-28_20h00.13.043,Cued GoNogo Task,2024.2.4,60.14440671383051,2025-04-28 20h00.23.232206 +0200,
block/CondBlock1.xlsx,You are about to start a block of type 1 trials.,97,97,0,Go,Go,0.11,0.2,0.05,space,blue,vertical,space,0.7733088000095449,None,space,1,0.43920690001687035,None,,,,0,0,0,0,0,97,97,97,368.7380646999809,,,,,,,,,,,,,,,,368.7225272000069,368.7380646999809,369.437464299961,369.437464299961,369.93683909997344,369.9210004999768,369.9216190999723,369.93683909997344,370.05364209995605,370.2366509999847,370.2366509999847,370.68775059998734,space,1,0.43920690001687035,None,370.6911787999561,371.20254249998834,372.2017257999978,372.1858622999862,,,,,,,,,,,,,,,,,005,002,2025-04-28_20h00.13.043,Cued GoNogo Task,2024.2.4,60.14440671383051,2025-04-28 20h00.23.232206 +0200,
block/CondBlock1.xlsx,You are about to start a block of type 1 trials.,98,98,0,Go,Go,0.26,0.05,0.2,space,green,horizontal,space,0.7733088000095449,None,None,0,,,,,,0,0,0,0,0,98,98,98,372.2017257999978,,,,,,,,,,,,,,,,372.1862047999748,372.2017257999978,372.90124709997326,372.90124709997326,373.4008832999971,373.3847089000046,373.3853040999966,373.4008832999971,373.6672045000014,373.8504359999788,373.8504359999788,374.334344199975,None,0,,,374.3383526999969,374.8496424999903,375.84863209998,375.8327348000021,374.34982919995673,374.34982919995673,,,,,,,,,,,,,,,005,002,2025-04-28_20h00.13.043,Cued GoNogo Task,2024.2.4,60.14440671383051,2025-04-28 20h00.23.232206 +0200,
block/CondBlock1.xlsx,You are about to start a block of type 1 trials.,99,99,0,Go,Go,0.28,0.05,0.2,space,green,horizontal,space,0.7733088000095449,None,space,1,0.2973304999759421,None,,,,0,0,0,0,0,99,99,99,375.84863209998,,,,,,,,,,,,,,,,375.83298040000955,375.84863209998,376.5481872999808,376.5481872999808,377.04777389997616,377.03172440000344,377.0322739999974,377.04777389997616,377.3315225999686,377.51407410000684,377.51407410000684,377.81510909995995,space,1,0.2973304999759421,None,377.81868759996723,378.33014659996843,379.3293169999961,379.31318309996277,,,,,,,,,,,,,,,,,005,002,2025-04-28_20h00.13.043,Cued GoNogo Task,2024.2.4,60.14440671383051,2025-04-28 20h00.23.232206 +0200,
block/CondBlock1.xlsx,You are about to start a block of type 1 trials.,0,0,0,,,,,,,,,space,0.7733088000095449,None,,,,,space,0.922865400032606,None,0,0,0,0,,,,,,,,,,,,,,,,,,,,,,,,,,,,,,,,,,,,,,,,,,,379.325810899958,379.3293169999961,379.3293169999961,380.2626558999764,space,0.922865400032606,None,,,,,,,,005,002,2025-04-28_20h00.13.043,Cued GoNogo Task,2024.2.4,60.14440671383051,2025-04-28 20h00.23.232206 +0200,
block/CondBlock2.xlsx,You are about to start a block of type 2 trials.,0,0,0,Go,Go,0.18,0.05,0.2,space,green,horizontal,space,269.05287680000765,None,space,1,0.425115599995479,None,,,,0,1,1,1,0,0,0,0,649.3596363000106,,,,,,,,,380.2660798999714,380.2783536000061,380.2783536000061,649.3413379999693,space,269.05287680000765,None,649.3574671999668,649.3596363000106,650.056667900004,650.0733917999896,650.5562129999744,650.5401057999698,650.540784599958,650.5562129999744,650.739308899967,650.9225298999809,650.9225298999809,651.3574406999978,space,1,0.425115599995479,None,651.3636691999855,651.8717468999675,652.8715782999643,652.8555705999606,,,,,,,,,,,,,,,,,005,002,2025-04-28_20h00.13.043,Cued GoNogo Task,2024.2.4,60.14440671383051,2025-04-28 20h00.23.232206 +0200,
block/CondBlock2.xlsx,You are about to start a block of type 2 trials.,1,1,0,Go,Go,0.2,0.2,0.05,space,green,vertical,space,269.05287680000765,None,space,1,0.30220310000004247,None,,,,0,1,1,1,0,1,1,1,652.8715782999643,,,,,,,,,,,,,,,,652.8560589999543,652.8715782999643,653.5703947999864,653.5870031999657,654.0697491999599,654.05400189996,654.0546999999788,654.0697491999599,654.2698500999832,654.4695358999888,654.4695358999888,654.7870419999817,space,1,0.30220310000004247,None,654.7905712999636,655.3023031000048,656.3016458000056,656.285306899983,,,,,,,,,,,,,,,,,005,002,2025-04-28_20h00.13.043,Cued GoNogo Task,2024.2.4,60.14440671383051,2025-04-28 20h00.23.232206 +0200,
block/CondBlock2.xlsx,You are about to start a block of type 2 trials.,2,2,0,Go,Go,0.22,0.05,0.2,space,blue,horizontal,space,269.05287680000765,None,space,1,0.35082920000422746,None,,,,0,1,1,1,0,2,2,2,656.3016458000056,,,,,,,,,,,,,,,,656.2855229999986,656.3016458000056,657.0007916999748,657.0007916999748,657.5003943999764,657.4845615999657,657.4853053999832,657.5003943999764,657.7336785999942,657.9165672999807,657.9165672999807,658.2840000999859,space,1,0.35082920000422746,None,658.2875265000039,658.7993052999955,659.798495199997,659.782505399955,,,,,,,,,,,,,,,,,005,002,2025-04-28_20h00.13.043,Cued GoNogo Task,2024.2.4,60.14440671383051,2025-04-28 20h00.23.232206 +0200,
block/CondBlock2.xlsx,You are about to start a block of type 2 trials.,3,3,0,Go,Go,0.14,0.05,0.2,space,green,horizontal,space,269.05287680000765,None,space,1,0.34559820004506037,None,,,,0,1,1,1,0,3,3,3,659.798495199997,,,,,,,,,,,,,,,,659.7827845999855,659.798495199997,660.4978910000063,660.4978910000063,660.9976194999763,660.9817171999603,660.9824906999711,660.9976194999763,661.147310499975,661.3304995999788,661.3304995999788,661.681251699978,space,1,0.34559820004506037,None,661.6845976999612,662.1965905000106,663.1956303999759,663.1796945999959,,,,,,,,,,,,,,,,,005,002,2025-04-28_20h00.13.043,Cued GoNogo Task,2024.2.4,60.14440671383051,2025-04-28 20h00.23.232206 +0200,
block/CondBlock2.xlsx,You are about to start a block of type 2 trials.,4,4,0,Go,Go,0.26,0.05,0.2,space,blue,horizontal,space,269.05287680000765,None,space,1,0.2549091999535449,None,,,,0,1,1,1,0,4,4,4,663.1956303999759,,,,,,,,,,,,,,,,663.1798927999916,663.1956303999759,663.8952220999636,663.8952220999636,664.3947363999905,664.3786180999596,664.3791848999681,664.3947363999905,664.6611307999701,664.8443499999703,664.8443499999703,665.1122279999545,space,1,0.2549091999535449,None,665.1186670999741,665.626934800006,666.6262871999643,666.6104858999606,,,,,,,,,,,,,,,,,005,002,2025-04-28_20h00.13.043,Cued GoNogo Task,2024.2.4,60.14440671383051,2025-04-28 20h00.23.232206 +0200,
block/CondBlock2.xlsx,You are about to start a block of type 2 trials.,5,5,0,Go,Go,0.1,0.05,0.2,space,blue,horizontal,space,269.05287680000765,None,space,1,0.3918571000103839,None,,,,0,1,1,1,0,5,5,5,666.6262871999643,,,,,,,,,,,,,,,,666.6108244999778,666.6262871999643,667.3256817999645,667.3256817999645,667.8253900999553,667.8092967999983,667.8099429999711,667.8253900999553,667.9252774000051,668.1248028999544,668.1248028999544,668.5261395999696,space,1,0.3918571000103839,None,668.5304615999921,669.0410173999844,670.040201900003,670.0245516999858,,,,,,,,,,,,,,,,,005,002,2025-04-28_20h00.13.043,Cued GoNogo Task,2024.2.4,60.14440671383051,2025-04-28 20h00.23.232206 +0200,
block/CondBlock2.xlsx,You are about to start a block of type 2 trials.,6,6,0,NoGo,NoGo,0.3,0.2,0.05,none,green,vertical,space,269.05287680000765,None,None,1,,,,,,0,1,1,1,0,6,6,6,670.040201900003,,,,,,,,,,,,,,,,670.0248351999908,670.040201900003,670.7395020999829,670.7395020999829,671.2390469000093,671.2231751999934,671.2237203000113,671.2390469000093,671.53892729996,671.7387102000066,671.7387102000066,672.2224058999564,None,1,,,672.2251345000113,672.7380317999632,673.7370184999891,673.7211024999851,672.2382272999967,672.2382272999967,,,,,,,,,,,,,,,005,002,2025-04-28_20h00.13.043,Cued GoNogo Task,2024.2.4,60.14440671383051,2025-04-28 20h00.23.232206 +0200,
block/CondBlock2.xlsx,You are about to start a block of type 2 trials.,7,7,0,NoGo,NoGo,0.14,0.05,0.2,none,blue,horizontal,space,269.05287680000765,None,None,1,,,,,,0,1,1,1,0,7,7,7,673.7370184999891,,,,,,,,,,,,,,,,673.7213394999853,673.7370184999891,674.4364111999748,674.4364111999748,674.9360055999714,674.9200144999777,674.9205548999598,674.9360055999714,675.0860323999659,675.2691556999926,675.2691556999926,675.7529098999803,None,1,,,675.7534750999766,676.2683548000059,677.2674717999762,677.2514272999833,675.7686043999856,675.7686043999856,,,,,,,,,,,,,,,005,002,2025-04-28_20h00.13.043,Cued GoNogo Task,2024.2.4,60.14440671383051,2025-04-28 20h00.23.232206 +0200,
block/CondBlock2.xlsx,You are about to start a block of type 2 trials.,8,8,0,Go,Go,0.13,0.2,0.05,space,blue,vertical,space,269.05287680000765,None,space,1,0.2841498000198044,None,,,,0,1,1,1,0,8,8,8,677.2674717999762,,,,,,,,,,,,,,,,677.2516928999685,677.2674717999762,677.9668786000111,677.9668786000111,678.4665584999602,678.4505668999627,678.4510061999899,678.4665584999602,678.5997552999761,678.783151199983,678.783151199983,679.083758599998,space,1,0.2841498000198044,None,679.0877443999634,679.5988220999716,680.5980471000075,680.582103099965,,,,,,,,,,,,,,,,,005,002,2025-04-28_20h00.13.043,Cued GoNogo Task,2024.2.4,60.14440671383051,2025-04-28 20h00.23.232206 +0200,
block/CondBlock2.xlsx,You are about to start a block of type 2 trials.,9,9,0,Go,Go,0.43,0.2,0.05,space,green,vertical,space,269.05287680000765,None,space,1,0.4317620000219904,None,,,,0,1,1,1,0,9,9,9,680.5980471000075,,,,,,,,,,,,,,,,680.5823979999986,680.5980471000075,681.2975667999708,681.2975667999708,681.7971869999892,681.7812070999644,681.7818591999821,681.7971869999892,682.2300546999904,682.4132998999557,682.4132998999557,682.8478461999912,space,1,0.4317620000219904,None,682.8515759999864,683.3623900999664,684.361572499969,684.3459406999755,,,,,,,,,,,,,,,,,005,002,2025-04-28_20h00.13.043,Cued GoNogo Task,2024.2.4,60.14440671383051,2025-04-28 20h00.23.232206 +0200,
block/CondBlock2.xlsx,You are about to start a block of type 2 trials.,10,10,0,Go,Go,0.14,0.2,0.05,space,green,vertical,space,269.05287680000765,None,space,1,0.45345709996763617,None,,,,0,1,1,1,0,10,10,10,684.361572499969,,,,,,,,,,,,,,,,684.346336699964,684.361572499969,685.0612217999878,685.0612217999878,685.5606570999953,685.5447204000084,685.5452792999567,685.5606570999953,685.7104348999565,685.8937304999563,685.8937304999563,686.3611103000003,space,1,0.45345709996763617,None,686.3655305999564,686.8763783999602,687.8755204000045,687.8595457999618,,,,,,,,,,,,,,,,,005,002,2025-04-28_20h00.13.043,Cued GoNogo Task,2024.2.4,60.14440671383051,2025-04-28 20h00.23.232206 +0200,
block/CondBlock2.xlsx,You are about to start a block of type 2 trials.,11,11,0,Go,Go,0.27,0.2,0.05,space,green,vertical,space,269.05287680000765,None,None,0,,,,,,0,1,1,1,0,11,11,11,687.8755204000045,,,,,,,,,,,,,,,,687.8598884000094,687.8755204000045,688.5750919999555,688.5750919999555,689.074503199954,689.0585131999687,689.0591117999866,689.074503199954,689.3574023999972,689.5406481999671,689.5406481999671,690.0243253000081,None,0,,,690.0267247000011,690.5401266999543,,691.539362200012,690.0403176000109,690.0403176000109,,,,,,,,,,,,,,,005,002,2025-04-28_20h00.13.043,Cued GoNogo Task,2024.2.4,60.14440671383051,2025-04-28 20h00.23.232206 +0200,
block/CondBlock2.xlsx,You are about to start a block of type 2 trials.,12,12,0,Go,Go,0.3,0.05,0.2,space,green,horizontal,space,269.05287680000765,None,space,1,0.30195230001118034,None,,,,0,1,1,1,0,12,12,12,691.5556712999824,,,,,,,,,,,,,,,,691.5396838999586,691.5556712999824,692.2385994999786,692.2552092999686,692.7381452999543,692.722207099956,692.7231987999985,692.7381452999543,693.0378695999971,693.2379305000068,693.2379305000068,693.5556743000052,space,1,0.30195230001118034,None,693.5596618999843,694.0704750999575,695.0696634000051,695.0536579999607,,,,,,,,,,,,,,,,,005,002,2025-04-28_20h00.13.043,Cued GoNogo Task,2024.2.4,60.14440671383051,2025-04-28 20h00.23.232206 +0200,
block/CondBlock2.xlsx,You are about to start a block of type 2 trials.,13,13,0,Go,Go,0.18,0.2,0.05,space,blue,vertical,space,269.05287680000765,None,space,1,0.38443660002667457,None,,,,0,1,1,1,0,13,13,13,695.0696634000051,,,,,,,,,,,,,,,,695.0539042999735,695.0696634000051,695.76899219997,695.76899219997,696.2683981999871,696.2524143999908,696.2530368999578,696.2683981999871,696.451806499972,696.635019999987,696.635019999987,697.0356262999703,space,1,0.38443660002667457,None,697.0392565999646,697.5507587000029,698.5499243999948,698.5342038999661,,,,,,,,,,,,,,,,,005,002,2025-04-28_20h00.13.043,Cued GoNogo Task,2024.2.4,60.14440671383051,2025-04-28 20h00.23.232206 +0200,
block/CondBlock2.xlsx,You are about to start a block of type 2 trials.,14,14,0,Go,Go,0.13,0.2,0.05,space,green,vertical,space,269.05287680000765,None,space,1,0.4185624000383541,None,,,,0,1,1,1,0,14,14,14,698.5499243999948,,,,,,,,,,,,,,,,698.5344915000023,698.5499243999948,699.2493498999975,699.2493498999975,699.7489095999626,699.7328592999838,699.7334509000066,699.7489095999626,699.8823214999866,700.065411299991,700.065411299991,700.4997654999606,space,1,0.4185624000383541,None,700.5042308999691,701.0146099999547,702.0136239999556,701.9977349999826,,,,,,,,,,,,,,,,,005,002,2025-04-28_20h00.13.043,Cued GoNogo Task,2024.2.4,60.14440671383051,2025-04-28 20h00.23.232206 +0200,
block/CondBlock2.xlsx,You are about to start a block of type 2 trials.,15,15,0,Go,Go,0.18,0.2,0.05,space,blue,vertical,space,269.05287680000765,None,space,1,0.36887980002211407,None,,,,0,1,1,1,0,15,15,15,702.0136239999556,,,,,,,,,,,,,,,,701.9980127000017,702.0136239999556,702.7129671999719,702.7129671999719,703.2127234999789,703.1966092999792,703.1972088000039,703.2127234999789,703.3959046999807,703.5791273000068,703.5791273000068,703.9631354999729,space,1,0.36887980002211407,None,703.9663679999649,704.478389099997,705.477468499972,705.4613276000018,,,,,,,,,,,,,,,,,005,002,2025-04-28_20h00.13.043,Cued GoNogo Task,2024.2.4,60.14440671383051,2025-04-28 20h00.23.232206 +0200,
block/CondBlock2.xlsx,You are about to start a block of type 2 trials.,16,16,0,Go,Go,0.24,0.2,0.05,space,green,vertical,space,269.05287680000765,None,space,1,0.27865559997735545,None,,,,0,1,1,1,0,16,16,16,705.477468499972,,,,,,,,,,,,,,,,705.4615159999812,705.477468499972,706.176896799996,706.176896799996,706.6764867999591,706.6605336999637,706.6610140999546,706.6764867999591,706.9262217999785,707.1093923999579,707.1093923999579,707.3937527000089,space,1,0.27865559997735545,None,707.3963677999564,707.9088986999705,708.9080348999705,708.8921588999801,,,,,,,,,,,,,,,,,005,002,2025-04-28_20h00.13.043,Cued GoNogo Task,2024.2.4,60.14440671383051,2025-04-28 20h00.23.232206 +0200,
block/CondBlock2.xlsx,You are about to start a block of type 2 trials.,17,17,0,Go,Go,0.26,0.2,0.05,space,blue,vertical,space,269.05287680000765,None,space,1,0.3028590999892913,None,,,,0,1,1,1,0,17,17,17,708.9080348999705,,,,,,,,,,,,,,,,708.8924740999937,708.9080348999705,709.6073458999745,709.6073458999745,710.1069577999879,710.0908437999897,710.0913317999803,710.1069577999879,710.3734593999689,710.5565748999943,710.5565748999943,710.8738805999747,space,1,0.3028590999892913,None,710.8768736000056,711.3893812999595,712.3884876999655,712.3725298999925,,,,,,,,,,,,,,,,,005,002,2025-04-28_20h00.13.043,Cued GoNogo Task,2024.2.4,60.14440671383051,2025-04-28 20h00.23.232206 +0200,
block/CondBlock2.xlsx,You are about to start a block of type 2 trials.,18,18,0,Go,Go,0.1,0.05,0.2,space,blue,horizontal,space,269.05287680000765,None,space,1,0.23760700004640967,None,,,,0,1,1,1,0,18,18,18,712.3884876999655,,,,,,,,,,,,,,,,712.3727529000025,712.3884876999655,713.0879576999578,713.0879576999578,713.5873896999983,713.571324599965,713.5717097999877,713.5873896999983,713.6873982999823,713.8872575999703,713.8872575999703,714.1379158999771,space,1,0.23760700004640967,None,714.1413913999568,714.6532730999752,715.6524501999957,715.6364734999952,,,,,,,,,,,,,,,,,005,002,2025-04-28_20h00.13.043,Cued GoNogo Task,2024.2.4,60.14440671383051,2025-04-28 20h00.23.232206 +0200,
block/CondBlock2.xlsx,You are about to start a block of type 2 trials.,19,19,0,Go,Go,0.46,0.2,0.05,space,blue,vertical,space,269.05287680000765,None,space,1,0.2547900999779813,None,,,,0,1,1,1,0,19,19,19,715.6524501999957,,,,,,,,,,,,,,,,715.636665500002,715.6524501999957,716.3518287999905,716.3518287999905,716.8513739999617,716.8354642000049,716.8363289999543,716.8513739999617,717.3177974999999,717.500999699987,717.500999699987,717.7683611999964,space,1,0.2547900999779813,None,717.7721875999705,718.2836575999972,719.2828033000114,719.2667818999616,,,,,,,,,,,,,,,,,005,002,2025-04-28_20h00.13.043,Cued GoNogo Task,2024.2.4,60.14440671383051,2025-04-28 20h00.23.232206 +0200,
block/CondBlock2.xlsx,You are about to start a block of type 2 trials.,20,20,0,Go,Go,0.3,0.05,0.2,space,blue,horizontal,space,269.05287680000765,None,space,1,0.2865948000107892,None,,,,0,1,1,1,0,20,20,20,719.2828033000114,,,,,,,,,,,,,,,,719.2669777999981,719.2828033000114,719.9822401999845,719.9822401999845,720.4818149000057,720.4657136999886,720.466461199976,720.4818149000057,720.7814971999614,720.981344699976,720.981344699976,721.2821690999554,space,1,0.2865948000107892,None,721.2856812999817,721.7974106000038,722.7966450999957,722.7805404000101,,,,,,,,,,,,,,,,,005,002,2025-04-28_20h00.13.043,Cued GoNogo Task,2024.2.4,60.14440671383051,2025-04-28 20h00.23.232206 +0200,
block/CondBlock2.xlsx,You are about to start a block of type 2 trials.,21,21,0,Go,Go,0.23,0.05,0.2,space,green,horizontal,space,269.05287680000765,None,space,1,0.4169361999956891,None,,,,0,1,1,1,0,21,21,21,722.7966450999957,,,,,,,,,,,,,,,,722.7807541000075,722.7966450999957,723.4960712000029,723.4960712000029,723.9955638999818,723.9798565999954,723.9803581999731,723.9955638999818,724.2289039999596,724.412087499979,724.412087499979,724.8457711999654,space,1,0.4169361999956891,None,724.8499596999609,725.3613643999561,,726.3606319999672,,,,,,,,,,,,,,,,,005,002,2025-04-28_20h00.13.043,Cued GoNogo Task,2024.2.4,60.14440671383051,2025-04-28 20h00.23.232206 +0200,
block/CondBlock2.xlsx,You are about to start a block of type 2 trials.,22,22,0,Go,Go,0.19,0.2,0.05,space,green,vertical,space,269.05287680000765,None,space,1,0.35824349999893457,None,,,,0,1,1,1,0,22,22,22,726.377028799965,,,,,,,,,,,,,,,,726.3608491999912,726.377028799965,727.0598020000034,727.0765734000015,727.5595505000092,727.5435325999861,727.5441819999833,727.5595505000092,727.7592202000087,727.9424631999573,727.9424631999573,728.3098938000039,space,1,0.35824349999893457,None,728.3139057999942,728.8250895999954,729.8240880999947,729.8084724000073,,,,,,,,,,,,,,,,,005,002,2025-04-28_20h00.13.043,Cued GoNogo Task,2024.2.4,60.14440671383051,2025-04-28 20h00.23.232206 +0200,
block/CondBlock2.xlsx,You are about to start a block of type 2 trials.,23,23,0,NoGo,NoGo,0.41,0.2,0.05,none,blue,vertical,space,269.05287680000765,None,None,1,,,,,,0,1,1,1,0,23,23,23,729.8240880999947,,,,,,,,,,,,,,,,729.8088540000026,729.8240880999947,730.5235216000001,730.5235216000001,731.0232910999912,731.0071976999752,731.0076685000095,731.0232910999912,731.4394929999835,731.6226181999664,731.6226181999664,732.1065518999822,None,1,,,732.1091216999921,732.6219293999602,733.6211714000092,733.6053626000066,732.1222588999663,732.1222588999663,,,,,,,,,,,,,,,005,002,2025-04-28_20h00.13.043,Cued GoNogo Task,2024.2.4,60.14440671383051,2025-04-28 20h00.23.232206 +0200,
block/CondBlock2.xlsx,You are about to start a block of type 2 trials.,24,24,0,Go,Go,0.17,0.2,0.05,space,blue,vertical,space,269.05287680000765,None,space,1,0.385456400050316,None,,,,0,1,1,1,0,24,24,24,733.6211714000092,,,,,,,,,,,,,,,,733.6056783999666,733.6211714000092,734.3204954999965,734.3204954999965,734.8201471999637,734.8043036999879,734.8049382999889,734.8201471999637,735.0033272999572,735.18650229997,735.18650229997,735.5871720999712,space,1,0.385456400050316,None,735.5901658000075,736.1024382999749,737.1013911999762,737.0857302999939,,,,,,,,,,,,,,,,,005,002,2025-04-28_20h00.13.043,Cued GoNogo Task,2024.2.4,60.14440671383051,2025-04-28 20h00.23.232206 +0200,
block/CondBlock2.xlsx,You are about to start a block of type 2 trials.,25,25,0,Go,Go,0.27,0.05,0.2,space,blue,horizontal,space,269.05287680000765,None,space,1,0.3009522000211291,None,,,,0,1,1,1,0,25,25,25,737.1013911999762,,,,,,,,,,,,,,,,737.0860826999997,737.1013911999762,737.8010133999633,737.8010133999633,738.3005764000118,738.2846759000095,738.2854033999611,738.3005764000118,738.5837611999596,738.7668133999687,738.7668133999687,739.0845492999651,space,1,0.3009522000211291,None,739.089269899996,739.5994409999694,740.5987210999592,740.5829394999892,,,,,,,,,,,,,,,,,005,002,2025-04-28_20h00.13.043,Cued GoNogo Task,2024.2.4,60.14440671383051,2025-04-28 20h00.23.232206 +0200,
block/CondBlock2.xlsx,You are about to start a block of type 2 trials.,26,26,0,Go,Go,0.26,0.05,0.2,space,green,horizontal,space,269.05287680000765,None,space,1,0.3011599999736063,None,,,,0,1,1,1,0,26,26,26,740.5987210999592,,,,,,,,,,,,,,,,740.5832317000022,740.5987210999592,741.2979599999962,741.2979599999962,741.7978253999609,741.7815395999933,741.7821005999576,741.7978253999609,742.0640111999819,742.2472952000098,742.2472952000098,742.5658704999951,space,1,0.3011599999736063,None,742.5710430999752,743.0798704999615,744.079147099983,744.0632769999793,,,,,,,,,,,,,,,,,005,002,2025-04-28_20h00.13.043,Cued GoNogo Task,2024.2.4,60.14440671383051,2025-04-28 20h00.23.232206 +0200,
block/CondBlock2.xlsx,You are about to start a block of type 2 trials.,27,27,0,Go,Go,0.22,0.2,0.05,space,green,vertical,space,269.05287680000765,None,space,1,0.41306580003583804,None,,,,0,1,1,1,0,27,27,27,744.079147099983,,,,,,,,,,,,,,,,744.0635676999809,744.079147099983,744.7785523000057,744.7785523000057,745.2781327999546,745.2623105999664,745.2629645999987,745.2781327999546,745.5112847999553,745.6946333000087,745.6946333000087,746.1122584000113,space,1,0.41306580003583804,None,746.1167502999888,746.6271747999708,747.6262236000039,747.6107168999733,,,,,,,,,,,,,,,,,005,002,2025-04-28_20h00.13.043,Cued GoNogo Task,2024.2.4,60.14440671383051,2025-04-28 20h00.23.232206 +0200,
block/CondBlock2.xlsx,You are about to start a block of type 2 trials.,28,28,0,Go,Go,0.19,0.05,0.2,space,blue,horizontal,space,269.05287680000765,None,space,1,0.3072840999811888,None,,,,0,1,1,1,0,28,28,28,747.6262236000039,,,,,,,,,,,,,,,,747.6110304999747,747.6262236000039,748.3257868000073,748.3257868000073,748.8253771999734,748.8094186999951,748.810118799971,748.8253771999734,749.0252505000099,749.208304299973,749.208304299973,749.5256198999705,space,1,0.3072840999811888,None,749.5299392999732,750.0410519999568,751.0404199999757,751.024299199984,,,,,,,,,,,,,,,,,005,002,2025-04-28_20h00.13.043,Cued GoNogo Task,2024.2.4,60.14440671383051,2025-04-28 20h00.23.232206 +0200,
block/CondBlock2.xlsx,You are about to start a block of type 2 trials.,29,29,0,Go,Go,0.18,0.05,0.2,space,blue,horizontal,space,269.05287680000765,None,space,1,0.3671827000216581,None,,,,0,1,1,1,0,29,29,29,751.0404199999757,,,,,,,,,,,,,,,,751.024631200009,751.0404199999757,751.7396143999649,751.7396143999649,752.23917169997,752.2228451999836,752.2233573999838,752.23917169997,752.4222271000035,752.6055854999577,752.6055854999577,752.9899225999834,space,1,0.3671827000216581,None,752.9938732999726,753.5048323000083,754.5040452000103,754.4880346999853,,,,,,,,,,,,,,,,,005,002,2025-04-28_20h00.13.043,Cued GoNogo Task,2024.2.4,60.14440671383051,2025-04-28 20h00.23.232206 +0200,
block/CondBlock2.xlsx,You are about to start a block of type 2 trials.,30,30,0,NoGo,NoGo,0.23,0.2,0.05,none,blue,vertical,space,269.05287680000765,None,None,1,,,,,,0,1,1,1,0,30,30,30,754.5040452000103,,,,,,,,,,,,,,,,754.488313400012,754.5040452000103,755.2033460999955,755.2033460999955,755.7029884000076,755.6868693999713,755.6874357999768,755.7029884000076,755.9361811999697,756.1192005999619,756.1192005999619,756.6028070999891,None,1,,,756.6054939999594,757.1016826999839,758.1009979000082,758.0851275000023,756.6188139999867,756.6188139999867,,,,,,,,,,,,,,,005,002,2025-04-28_20h00.13.043,Cued GoNogo Task,2024.2.4,60.14440671383051,2025-04-28 20h00.23.232206 +0200,
block/CondBlock2.xlsx,You are about to start a block of type 2 trials.,31,31,0,Go,Go,0.43,0.2,0.05,space,green,vertical,space,269.05287680000765,None,space,1,0.27131709997775033,None,,,,0,1,1,1,0,31,31,31,758.1009979000082,,,,,,,,,,,,,,,,758.0855214999756,758.1175986999879,758.8170622999896,758.8170622999896,759.3167405999848,759.3005252999719,759.3010682999738,759.3167405999848,759.7496901999693,759.9329110999824,759.9329110999824,760.217113199993,space,1,0.27131709997775033,None,760.2209204999963,760.7321214000112,761.7313955999562,761.7154766999884,,,,,,,,,,,,,,,,,005,002,2025-04-28_20h00.13.043,Cued GoNogo Task,2024.2.4,60.14440671383051,2025-04-28 20h00.23.232206 +0200,
block/CondBlock2.xlsx,You are about to start a block of type 2 trials.,32,32,0,Go,Go,0.13,0.05,0.2,space,blue,horizontal,space,269.05287680000765,None,space,1,0.34107239998411387,None,,,,0,1,1,1,0,32,32,32,761.7313955999562,,,,,,,,,,,,,,,,761.7157492999686,761.7313955999562,762.4307091999799,762.4307091999799,762.9304071000079,762.9142838999978,762.9148468999774,762.9304071000079,763.0635875999578,763.2469548999798,763.2469548999798,763.597902999958,space,1,0.34107239998411387,None,763.6029864999582,764.1126871999586,765.1118121999898,765.0958846999565,,,,,,,,,,,,,,,,,005,002,2025-04-28_20h00.13.043,Cued GoNogo Task,2024.2.4,60.14440671383051,2025-04-28 20h00.23.232206 +0200,
block/CondBlock2.xlsx,You are about to start a block of type 2 trials.,33,33,0,Go,Go,0.45,0.05,0.2,space,green,horizontal,space,269.05287680000765,None,space,1,0.39693510002689436,None,,,,0,1,1,1,0,33,33,33,765.1118121999898,,,,,,,,,,,,,,,,765.0961467999732,765.1118121999898,765.8112555999542,765.8112555999542,766.3108299999731,766.2952200999716,766.2959864999866,766.3108299999731,766.7604384999722,766.9603396999883,766.9603396999883,767.3610952000017,space,1,0.39693510002689436,None,767.364368999959,767.8762224999955,768.8756308999727,768.8595080999658,,,,,,,,,,,,,,,,,005,002,2025-04-28_20h00.13.043,Cued GoNogo Task,2024.2.4,60.14440671383051,2025-04-28 20h00.23.232206 +0200,
block/CondBlock2.xlsx,You are about to start a block of type 2 trials.,34,34,0,Go,Go,0.14,0.2,0.05,space,blue,vertical,space,269.05287680000765,None,space,1,0.31689319998258725,None,,,,0,1,1,1,0,34,34,34,768.8756308999727,,,,,,,,,,,,,,,,768.8597509000101,768.8756308999727,769.574873399979,769.574873399979,770.0745932999998,770.0583756999695,770.0589295999962,770.0745932999998,770.2242830999894,770.4073891000007,770.4073891000007,770.7263862999971,space,1,0.31689319998258725,None,770.7297606999637,771.2401630000095,772.239460999961,772.2233526000055,,,,,,,,,,,,,,,,,005,002,2025-04-28_20h00.13.043,Cued GoNogo Task,2024.2.4,60.14440671383051,2025-04-28 20h00.23.232206 +0200,
block/CondBlock2.xlsx,You are about to start a block of type 2 trials.,35,35,0,Go,Go,0.11,0.2,0.05,space,blue,vertical,space,269.05287680000765,None,space,1,0.3937782000284642,None,,,,0,1,1,1,0,35,35,35,772.239460999961,,,,,,,,,,,,,,,,772.2236586000072,772.239460999961,772.9386521999841,772.9386521999841,773.4382941999938,773.4225603999803,773.4232227999601,773.4382941999938,773.5549507999676,773.7382446999545,773.7382446999545,774.1390633999836,space,1,0.3937782000284642,None,774.1425601000083,774.6540946000023,775.6531862999545,775.637225399958,,,,,,,,,,,,,,,,,005,002,2025-04-28_20h00.13.043,Cued GoNogo Task,2024.2.4,60.14440671383051,2025-04-28 20h00.23.232206 +0200,
block/CondBlock2.xlsx,You are about to start a block of type 2 trials.,36,36,0,Go,Go,0.15,0.05,0.2,space,green,horizontal,space,269.05287680000765,None,space,1,0.3302812000038102,None,,,,0,1,1,1,0,36,36,36,775.6531862999545,,,,,,,,,,,,,,,,775.6375012999633,775.6531862999545,776.352687400009,776.352687400009,776.8523600999615,776.8360684000072,776.8365894999588,776.8523600999615,777.002157699957,777.2019563000067,777.2019563000067,777.5361415999942,space,1,0.3302812000038102,None,777.5395897999988,778.0511689999839,779.0504869999713,779.0345079000108,,,,,,,,,,,,,,,,,005,002,2025-04-28_20h00.13.043,Cued GoNogo Task,2024.2.4,60.14440671383051,2025-04-28 20h00.23.232206 +0200,
block/CondBlock2.xlsx,You are about to start a block of type 2 trials.,37,37,0,Go,Go,0.15,0.2,0.05,space,green,vertical,space,269.05287680000765,None,space,1,0.29278150002937764,None,,,,0,1,1,1,0,37,37,37,779.0504869999713,,,,,,,,,,,,,,,,779.0348059000098,779.0504869999713,779.7499075999949,779.7499075999949,780.2492930999724,780.2333344999934,780.2338457999867,780.2492930999724,780.3994521999848,780.599289899983,780.599289899983,780.9005354999681,space,1,0.29278150002937764,None,780.904902499984,781.4153534999932,,782.4144041999825,,,,,,,,,,,,,,,,,005,002,2025-04-28_20h00.13.043,Cued GoNogo Task,2024.2.4,60.14440671383051,2025-04-28 20h00.23.232206 +0200,
block/CondBlock2.xlsx,You are about to start a block of type 2 trials.,38,38,0,NoGo,NoGo,0.14,0.2,0.05,none,green,vertical,space,269.05287680000765,None,None,1,,,,,,0,1,1,1,0,38,38,38,782.4309959000093,,,,,,,,,,,,,,,,782.4146398999728,782.4309959000093,783.113867899985,783.1305054000113,783.6133604999632,783.5973652999965,783.5980015000096,783.6133604999632,783.7632078999886,783.9464996999595,783.9464996999595,784.429864500009,None,1,,,784.4318174999789,784.9288301999914,785.9280522000045,785.912334099994,784.4459097000072,784.4459097000072,,,,,,,,,,,,,,,005,002,2025-04-28_20h00.13.043,Cued GoNogo Task,2024.2.4,60.14440671383051,2025-04-28 20h00.23.232206 +0200,
block/CondBlock2.xlsx,You are about to start a block of type 2 trials.,39,39,0,Go,Go,0.46,0.2,0.05,space,green,vertical,space,269.05287680000765,None,space,1,0.24310180003521964,None,,,,0,1,1,1,0,39,39,39,785.9280522000045,,,,,,,,,,,,,,,,785.9126619999879,785.9446747999755,786.644180400006,786.644180400006,787.1437966999947,787.1278234999627,787.1283479999984,787.1437966999947,787.6101010999992,787.7932034999831,787.7932034999831,788.0440282999771,space,1,0.24310180003521964,None,788.0479499999783,788.5592857999727,789.558340699994,789.5422315999749,,,,,,,,,,,,,,,,,005,002,2025-04-28_20h00.13.043,Cued GoNogo Task,2024.2.4,60.14440671383051,2025-04-28 20h00.23.232206 +0200,
block/CondBlock2.xlsx,You are about to start a block of type 2 trials.,40,40,0,Go,Go,0.5,0.05,0.2,space,blue,horizontal,space,269.05287680000765,None,space,1,0.3945504000294022,None,,,,0,1,1,1,0,40,40,40,789.558340699994,,,,,,,,,,,,,,,,789.5424613999785,789.558340699994,790.2577516000019,790.2577516000019,790.7573569999659,790.7414902999881,790.7418663999997,790.7573569999659,791.2570721000084,791.4569093000027,791.4569093000027,791.8577395000029,space,1,0.3945504000294022,None,791.8617239999585,792.372743999993,793.3719111999962,793.3563080999884,,,,,,,,,,,,,,,,,005,002,2025-04-28_20h00.13.043,Cued GoNogo Task,2024.2.4,60.14440671383051,2025-04-28 20h00.23.232206 +0200,
block/CondBlock2.xlsx,You are about to start a block of type 2 trials.,41,41,0,Go,Go,0.16,0.05,0.2,space,green,horizontal,space,269.05287680000765,None,None,0,,,,,,0,1,1,1,0,41,41,41,793.3719111999962,,,,,,,,,,,,,,,,793.3566768000019,793.3719111999962,794.0713557999698,794.0713557999698,794.5711817999836,794.555188999977,794.5557272000005,794.5711817999836,794.7374804999563,794.9206326999702,794.9206326999702,795.4042071999866,None,0,,,795.4062866999884,795.9032609999995,796.9023221000098,796.8863608000102,795.4201290999772,795.4201290999772,,,,,,,,,,,,,,,005,002,2025-04-28_20h00.13.043,Cued GoNogo Task,2024.2.4,60.14440671383051,2025-04-28 20h00.23.232206 +0200,
