Block,blockMsg,thisN,thisTrialN,thisRepN,CueType,StimType,CueTime,Stim_Height,Stim_Width,CRESP,Color,Orientation,key_resp_2.keys,key_resp_2.rt,key_resp_2.duration,Key_Resp.keys,Key_Resp.corr,Key_Resp.rt,Key_Resp.duration,key_resp_3.keys,key_resp_3.rt,key_resp_3.duration,Blocks.thisRepN,Blocks.thisTrialN,Blocks.thisN,Blocks.thisIndex,Trials.thisRepN,Trials.thisTrialN,Trials.thisN,Trials.thisIndex,thisRow.t,notes,TaskIntro.started,fixation.started,key_resp.started,TaskIntro.stopped,key_resp.keys,key_resp.rt,key_resp.duration,BlockStart.started,BlockStart_Msg.started,key_resp_2.started,BlockStart.stopped,Blocks.key_resp_2.keys,Blocks.key_resp_2.rt,Blocks.key_resp_2.duration,Fixation.started,FixationPhase.started,Blank.started,FixationPhase.stopped,Blank.stopped,Fixation.stopped,Trial.started,Cue.started,Cue.stopped,GoNogo_Stim.started,Key_Resp.started,Trial.stopped,Trials.Key_Resp.keys,Trials.Key_Resp.corr,Trials.Key_Resp.rt,Trials.Key_Resp.duration,Feedback.started,Feedback_Present.started,Feedback_Present.stopped,Feedback.stopped,GoNogo_Stim.stopped,Key_Resp.stopped,BlockEnd.started,BlockEnd_Msg.started,key_resp_3.started,BlockEnd.stopped,Blocks.key_resp_3.keys,Blocks.key_resp_3.rt,Blocks.key_resp_3.duration,TaskEnd.started,ThankYou.started,key_resp_4.started,TaskEnd.stopped,key_resp_4.keys,key_resp_4.rt,key_resp_4.duration,participant,session,date,expName,psychopyVersion,frameRate,expStart,
,,,,,,,,,,,,,,,,,,,,,,,,,,,,,,,,,0.0015906000044196844,0.0041313000256195664,0.0041313000256195664,23.096978700021282,space,23.083121999981813,None,,,,,,,,,,,,,,,,,,,,,,,,,,,,,,,,,,,,,,,,,,,,006,001,2025-04-28_22h35.22.477,Cued GoNogo Task,2024.2.4,60.223114597228246,2025-04-28 22h35.34.320385 +0200,
block/CondBlock1.xlsx,You are about to start a block of type 1 trials.,0,0,0,Go,Go,0.13,0.05,0.2,space,blue,horizontal,space,5.773665399989113,None,space,1,0.3542711000191048,None,,,,0,0,0,0,0,0,0,0,28.971645699988585,,,,,,,,,23.118678400001954,23.121024699998088,23.121024699998088,28.904780099983327,space,5.773665399989113,None,28.96867840003688,28.971645699988585,29.619798300031107,29.686066400026903,30.119364299986046,30.103100600012112,30.103681700013112,30.119364299986046,30.25241970003117,30.435788100003265,30.435788100003265,30.803011199983303,space,1,0.3542711000191048,None,30.813020100002177,31.318318000005092,32.31741060002241,32.301485700008925,,,,,,,,,,,,,,,,,006,001,2025-04-28_22h35.22.477,Cued GoNogo Task,2024.2.4,60.223114597228246,2025-04-28 22h35.34.320385 +0200,
block/CondBlock1.xlsx,You are about to start a block of type 1 trials.,1,1,0,NoGo,NoGo,0.43,0.05,0.2,none,blue,horizontal,space,5.773665399989113,None,None,1,,,,,,0,0,0,0,0,1,1,1,32.31741060002241,,,,,,,,,,,,,,,,32.30175430001691,32.31741060002241,33.01685230003204,33.01685230003204,33.516480099991895,33.50081759999739,33.5017891000025,33.516480099991895,33.949451600026805,34.132649899984244,34.132649899984244,34.61615990003338,None,1,,,34.618726500018965,35.115087100013625,36.114349899988156,36.09808949998114,34.63233350001974,34.63233350001974,,,,,,,,,,,,,,,006,001,2025-04-28_22h35.22.477,Cued GoNogo Task,2024.2.4,60.223114597228246,2025-04-28 22h35.34.320385 +0200,
block/CondBlock1.xlsx,You are about to start a block of type 1 trials.,2,2,0,Go,Go,0.12,0.2,0.05,space,blue,vertical,space,5.773665399989113,None,space,1,0.33643349999329075,None,,,,0,0,0,0,0,2,2,2,36.114349899988156,,,,,,,,,,,,,,,,36.09833040001104,36.13103960000444,36.830575600033626,36.830575600033626,37.33000080002239,37.314011999988,37.314576100034174,37.33000080002239,37.46322670002701,37.64628500002436,37.64628500002436,37.99757040000986,space,1,0.33643349999329075,None,38.00350079999771,38.512577900022734,39.51145310001448,39.495959700027015,,,,,,,,,,,,,,,,,006,001,2025-04-28_22h35.22.477,Cued GoNogo Task,2024.2.4,60.223114597228246,2025-04-28 22h35.34.320385 +0200,
block/CondBlock1.xlsx,You are about to start a block of type 1 trials.,3,3,0,NoGo,NoGo,0.18,0.2,0.05,none,green,vertical,space,5.773665399989113,None,None,1,,,,,,0,0,0,0,0,3,3,3,39.51145310001448,,,,,,,,,,,,,,,,39.496334700030275,39.51145310001448,40.211064300034195,40.211064300034195,40.71054100000765,40.6945679000346,40.69514419999905,40.71054100000765,40.893845100014005,41.07687839999562,41.07687839999562,41.56071900000097,None,1,,,41.564713300031144,42.07603090000339,43.075150199991185,43.059453700028826,41.57646389998263,41.57646389998263,,,,,,,,,,,,,,,006,001,2025-04-28_22h35.22.477,Cued GoNogo Task,2024.2.4,60.223114597228246,2025-04-28 22h35.34.320385 +0200,
block/CondBlock1.xlsx,You are about to start a block of type 1 trials.,4,4,0,Go,Go,0.24,0.05,0.2,space,green,horizontal,space,5.773665399989113,None,space,1,0.2668006999883801,None,,,,0,0,0,0,0,4,4,4,43.075150199991185,,,,,,,,,,,,,,,,43.05978180002421,43.075150199991185,43.77482799999416,43.77482799999416,44.27415850001853,44.25806269998429,44.258643899986055,44.27415850001853,44.52408890001243,44.7073424999835,44.7073424999835,44.97662939998554,space,1,0.2668006999883801,None,44.98247560003074,45.48992060002638,46.48914710001554,46.4731516999891,,,,,,,,,,,,,,,,,006,001,2025-04-28_22h35.22.477,Cued GoNogo Task,2024.2.4,60.223114597228246,2025-04-28 22h35.34.320385 +0200,
block/CondBlock1.xlsx,You are about to start a block of type 1 trials.,5,5,0,Go,Go,0.21,0.05,0.2,space,blue,horizontal,space,5.773665399989113,None,space,1,0.3426092999870889,None,,,,0,0,0,0,0,5,5,5,46.48914710001554,,,,,,,,,,,,,,,,46.47342510003364,46.48914710001554,47.1886265000212,47.1886265000212,47.6881418999983,47.67208600003505,47.67275359999621,47.6881418999983,47.90461600001436,48.08789229998365,48.08789229998365,48.43851840001298,space,1,0.3426092999870889,None,48.44172709999839,48.95383120002225,49.95308190002106,49.93720250000479,,,,,,,,,,,,,,,,,006,001,2025-04-28_22h35.22.477,Cued GoNogo Task,2024.2.4,60.223114597228246,2025-04-28 22h35.34.320385 +0200,
block/CondBlock1.xlsx,You are about to start a block of type 1 trials.,6,6,0,Go,Go,0.11,0.2,0.05,space,blue,vertical,space,5.773665399989113,None,space,1,0.32224609999684617,None,,,,0,0,0,0,0,6,6,6,49.95308190002106,,,,,,,,,,,,,,,,49.93755129998317,49.95308190002106,50.652135899988934,50.652135899988934,51.15179040003568,51.13608710002154,51.13676379999379,51.15179040003568,51.26841710001463,51.45189259998733,51.45189259998733,51.785582099983,space,1,0.32224609999684617,None,51.789413599995896,52.30106979998527,53.300118100014515,53.28425760002574,,,,,,,,,,,,,,,,,006,001,2025-04-28_22h35.22.477,Cued GoNogo Task,2024.2.4,60.223114597228246,2025-04-28 22h35.34.320385 +0200,
block/CondBlock1.xlsx,You are about to start a block of type 1 trials.,7,7,0,Go,Go,0.15,0.2,0.05,space,blue,vertical,space,5.773665399989113,None,space,1,0.22321939998073503,None,,,,0,0,0,0,0,7,7,7,53.300118100014515,,,,,,,,,,,,,,,,53.28459530003602,53.300118100014515,53.99955230002524,53.99955230002524,54.49928590003401,54.48319130000891,54.48379120003665,54.49928590003401,54.64904410002055,54.84888970002066,54.84888970002066,55.082963299995754,space,1,0.22321939998073503,None,55.08653969998704,55.598520100000314,,56.59768669999903,,,,,,,,,,,,,,,,,006,001,2025-04-28_22h35.22.477,Cued GoNogo Task,2024.2.4,60.223114597228246,2025-04-28 22h35.34.320385 +0200,
block/CondBlock1.xlsx,You are about to start a block of type 1 trials.,8,8,0,NoGo,NoGo,0.3,0.05,0.2,none,blue,horizontal,space,5.773665399989113,None,space,0,0.18161050003254786,None,,,,0,0,0,0,0,8,8,8,56.61406250001164,,,,,,,,,,,,,,,,56.59795349999331,56.61406250001164,57.29709270002786,57.313845600001514,57.79625539999688,57.780396900023334,57.78092520002974,57.79625539999688,58.0962629999849,58.296305200026836,58.296305200026836,58.4812069000327,space,0,0.18161050003254786,None,58.490909999993164,58.99546539998846,59.9949520000373,59.978821900032926,,,,,,,,,,,,,,,,,006,001,2025-04-28_22h35.22.477,Cued GoNogo Task,2024.2.4,60.223114597228246,2025-04-28 22h35.34.320385 +0200,
block/CondBlock1.xlsx,You are about to start a block of type 1 trials.,9,9,0,NoGo,NoGo,0.17,0.05,0.2,none,blue,horizontal,space,5.773665399989113,None,space,0,0.2944212000002153,None,,,,0,0,0,0,0,9,9,9,59.9949520000373,,,,,,,,,,,,,,,,59.97909420001088,59.9949520000373,60.69397459999891,60.69397459999891,61.19370699999854,61.17755570000736,61.1780948000378,61.19370699999854,61.37691079999786,61.5601412000251,61.5601412000251,61.86105200002203,space,0,0.2944212000002153,None,61.8614800000214,62.376201800012495,63.37517379998462,63.35958849999588,,,,,,,,,,,,,,,,,006,001,2025-04-28_22h35.22.477,Cued GoNogo Task,2024.2.4,60.223114597228246,2025-04-28 22h35.34.320385 +0200,
block/CondBlock1.xlsx,You are about to start a block of type 1 trials.,10,10,0,NoGo,NoGo,0.26,0.2,0.05,none,green,vertical,space,5.773665399989113,None,None,1,,,,,,0,0,0,0,0,10,10,10,63.37517379998462,,,,,,,,,,,,,,,,63.35990470001707,63.37517379998462,64.07473360002041,64.07473360002041,64.57418789999792,64.55841890000738,64.55957650003256,64.57418789999792,64.8408471000148,65.02390730002662,65.02390730002662,65.50803640001686,None,1,,,65.51200089999475,66.02280770003563,67.02209710003808,67.0067035999964,65.52343160001328,65.52343160001328,,,,,,,,,,,,,,,006,001,2025-04-28_22h35.22.477,Cued GoNogo Task,2024.2.4,60.223114597228246,2025-04-28 22h35.34.320385 +0200,
block/CondBlock1.xlsx,You are about to start a block of type 1 trials.,11,11,0,Go,Go,0.27,0.05,0.2,space,green,horizontal,space,5.773665399989113,None,space,1,0.30259590002242476,None,,,,0,0,0,0,0,11,11,11,67.02209710003808,,,,,,,,,,,,,,,,67.00692359998357,67.02209710003808,67.72170769999502,67.72170769999502,68.22119900002144,68.20520120003494,68.20574080001097,68.22119900002144,68.50439040001947,68.68750639999053,68.68750639999053,69.00542850000784,space,1,0.30259590002242476,None,69.0098377999966,69.52016650000587,70.51940099999774,70.50357270002132,,,,,,,,,,,,,,,,,006,001,2025-04-28_22h35.22.477,Cued GoNogo Task,2024.2.4,60.223114597228246,2025-04-28 22h35.34.320385 +0200,
block/CondBlock1.xlsx,You are about to start a block of type 1 trials.,12,12,0,Go,Go,0.16,0.2,0.05,space,green,vertical,space,5.773665399989113,None,space,1,0.33838480000849813,None,,,,0,0,0,0,0,12,12,12,70.51940099999774,,,,,,,,,,,,,,,,70.50388730003033,70.51940099999774,71.21880919998512,71.21880919998512,71.71828680002363,71.70241510000778,71.70308920001844,71.71828680002363,71.88495020003757,72.06812710000668,72.06812710000668,72.4197211000137,space,1,0.33838480000849813,None,72.42628790001618,72.93394750001607,73.93336720002117,73.91732870001579,,,,,,,,,,,,,,,,,006,001,2025-04-28_22h35.22.477,Cued GoNogo Task,2024.2.4,60.223114597228246,2025-04-28 22h35.34.320385 +0200,
block/CondBlock1.xlsx,You are about to start a block of type 1 trials.,13,13,0,Go,Go,0.13,0.2,0.05,space,green,vertical,space,5.773665399989113,None,space,1,0.36536789999809116,None,,,,0,0,0,0,0,13,13,13,73.93336720002117,,,,,,,,,,,,,,,,73.9176085999934,73.93336720002117,74.63267200003611,74.63267200003611,75.13217749999603,75.11626650003018,75.11694750003517,75.13217749999603,75.2655465999851,75.4651889000088,75.4651889000088,75.83325249998597,space,1,0.36536789999809116,None,75.83738749998156,76.34801250003511,77.34703200001968,77.33128849999048,,,,,,,,,,,,,,,,,006,001,2025-04-28_22h35.22.477,Cued GoNogo Task,2024.2.4,60.223114597228246,2025-04-28 22h35.34.320385 +0200,
block/CondBlock1.xlsx,You are about to start a block of type 1 trials.,14,14,0,Go,Go,0.12,0.05,0.2,space,blue,horizontal,space,5.773665399989113,None,space,1,0.2966770000057295,None,,,,0,0,0,0,0,14,14,14,77.34703200001968,,,,,,,,,,,,,,,,77.33161809999729,77.34703200001968,78.04645590001019,78.04645590001019,78.5461612000363,78.53025140002137,78.53090000001248,78.5461612000363,78.67939140001545,78.86248240002897,78.86248240002897,79.16355040000053,space,1,0.2966770000057295,None,79.16916410002159,79.67875940003432,,80.67781180003658,,,,,,,,,,,,,,,,,006,001,2025-04-28_22h35.22.477,Cued GoNogo Task,2024.2.4,60.223114597228246,2025-04-28 22h35.34.320385 +0200,
block/CondBlock1.xlsx,You are about to start a block of type 1 trials.,15,15,0,Go,Go,0.45,0.2,0.05,space,blue,vertical,space,5.773665399989113,None,space,1,0.2641656999476254,None,,,,0,0,0,0,0,15,15,15,80.69435579999117,,,,,,,,,,,,,,,,80.67806469998322,80.69435579999117,81.37725389999105,81.39377470000181,81.87661620002473,81.8609482999891,81.86169669998344,81.87661620002473,82.32628460001433,82.52622470003553,82.52622470003553,82.79372660000809,space,1,0.2641656999476254,None,82.7974222000339,83.30895600002259,84.30803610000294,84.29229030001443,,,,,,,,,,,,,,,,,006,001,2025-04-28_22h35.22.477,Cued GoNogo Task,2024.2.4,60.223114597228246,2025-04-28 22h35.34.320385 +0200,
block/CondBlock1.xlsx,You are about to start a block of type 1 trials.,16,16,0,NoGo,NoGo,0.14,0.2,0.05,none,green,vertical,space,5.773665399989113,None,None,1,,,,,,0,0,0,0,0,16,16,16,84.30803610000294,,,,,,,,,,,,,,,,84.29261669999687,84.30803610000294,85.00752749998355,85.00752749998355,85.50710129999788,85.49083160003647,85.49129899998661,85.50710129999788,85.65701339999214,85.84006900002714,85.84006900002714,86.32359179999912,None,1,,,86.32579319999786,86.83921890001511,87.8384424999822,87.82293580000987,86.33953320002183,86.33953320002183,,,,,,,,,,,,,,,006,001,2025-04-28_22h35.22.477,Cued GoNogo Task,2024.2.4,60.223114597228246,2025-04-28 22h35.34.320385 +0200,
block/CondBlock1.xlsx,You are about to start a block of type 1 trials.,17,17,0,Go,Go,0.12,0.05,0.2,space,green,horizontal,space,5.773665399989113,None,space,1,0.3237391999573447,None,,,,0,0,0,0,0,17,17,17,87.8384424999822,,,,,,,,,,,,,,,,87.82323889998952,87.8384424999822,88.53789109998615,88.53789109998615,89.03733469999861,89.02141029998893,89.02192189998459,89.03733469999861,89.1707009000238,89.35387709998759,89.35387709998759,89.68810040003154,space,1,0.3237391999573447,None,89.69235249998746,90.20318569999654,91.20238540001446,91.1864976999932,,,,,,,,,,,,,,,,,006,001,2025-04-28_22h35.22.477,Cued GoNogo Task,2024.2.4,60.223114597228246,2025-04-28 22h35.34.320385 +0200,
block/CondBlock1.xlsx,You are about to start a block of type 1 trials.,18,18,0,Go,Go,0.47,0.2,0.05,space,blue,vertical,space,5.773665399989113,None,space,1,0.3873592000454664,None,,,,0,0,0,0,0,18,18,18,91.20238540001446,,,,,,,,,,,,,,,,91.18681340001058,91.20238540001446,91.90178850002121,91.90178850002121,92.40125880000414,92.38518460001796,92.38573450001422,92.40125880000414,92.88429910002742,93.06761690002168,93.06761690002168,93.46815430000424,space,1,0.3873592000454664,None,93.4732274999842,93.98345790000167,94.98258350003744,94.96670789999189,,,,,,,,,,,,,,,,,006,001,2025-04-28_22h35.22.477,Cued GoNogo Task,2024.2.4,60.223114597228246,2025-04-28 22h35.34.320385 +0200,
block/CondBlock1.xlsx,You are about to start a block of type 1 trials.,19,19,0,Go,Go,0.18,0.2,0.05,space,green,vertical,space,5.773665399989113,None,space,1,0.3077278999844566,None,,,,0,0,0,0,0,19,19,19,94.98258350003744,,,,,,,,,,,,,,,,94.96697960002348,94.98258350003744,95.68190800002776,95.68190800002776,96.18144539999776,96.16567970003234,96.16626070003258,96.18144539999776,96.36490440001944,96.54799920000369,96.54799920000369,96.86539910000283,space,1,0.3077278999844566,None,96.86939980002353,97.3807533000363,98.3797677999828,98.36391569999978,,,,,,,,,,,,,,,,,006,001,2025-04-28_22h35.22.477,Cued GoNogo Task,2024.2.4,60.223114597228246,2025-04-28 22h35.34.320385 +0200,
block/CondBlock1.xlsx,You are about to start a block of type 1 trials.,20,20,0,Go,Go,0.19,0.2,0.05,space,blue,vertical,space,5.773665399989113,None,space,1,0.3411650999914855,None,,,,0,0,0,0,0,20,20,20,98.3797677999828,,,,,,,,,,,,,,,,98.36423220002325,98.3797677999828,99.07931240001926,99.07931240001926,99.57887189998291,99.56267399998615,99.56316580000566,99.57887189998291,99.77851949998876,99.96192690002499,99.96192690002499,100.31244870001683,space,1,0.3411650999914855,None,100.31688330002362,100.82766780001111,101.82685499999207,101.81084029999329,,,,,,,,,,,,,,,,,006,001,2025-04-28_22h35.22.477,Cued GoNogo Task,2024.2.4,60.223114597228246,2025-04-28 22h35.34.320385 +0200,
block/CondBlock1.xlsx,You are about to start a block of type 1 trials.,21,21,0,Go,Go,0.14,0.2,0.05,space,blue,vertical,space,5.773665399989113,None,space,1,0.2875693999812938,None,,,,0,0,0,0,0,21,21,21,101.82685499999207,,,,,,,,,,,,,,,,101.81111459998647,101.82685499999207,102.52618089999305,102.52618089999305,103.02583180001238,103.00992969999788,103.01050360000227,103.02583180001238,103.17590959998779,103.35894449998159,103.35894449998159,103.65988829999696,space,1,0.2875693999812938,None,103.66427740000654,104.17495790001703,105.1742452000035,105.15816540003289,,,,,,,,,,,,,,,,,006,001,2025-04-28_22h35.22.477,Cued GoNogo Task,2024.2.4,60.223114597228246,2025-04-28 22h35.34.320385 +0200,
block/CondBlock1.xlsx,You are about to start a block of type 1 trials.,22,22,0,Go,Go,0.15,0.2,0.05,space,blue,vertical,space,5.773665399989113,None,space,1,0.26698270003544167,None,,,,0,0,0,0,0,22,22,22,105.1742452000035,,,,,,,,,,,,,,,,105.15842600003816,105.1742452000035,105.87374579999596,105.87374579999596,106.37322070001392,106.3571158000268,106.35763819998829,106.37322070001392,106.52325610001571,106.72301580000203,106.72301580000203,107.00710440002149,space,1,0.26698270003544167,None,107.01119759998983,107.52229039999656,108.52164739998989,108.50532029999886,,,,,,,,,,,,,,,,,006,001,2025-04-28_22h35.22.477,Cued GoNogo Task,2024.2.4,60.223114597228246,2025-04-28 22h35.34.320385 +0200,
block/CondBlock1.xlsx,You are about to start a block of type 1 trials.,23,23,0,Go,Go,0.23,0.05,0.2,space,green,horizontal,space,5.773665399989113,None,space,1,0.23023569997167215,None,,,,0,0,0,0,0,23,23,23,108.52164739998989,,,,,,,,,,,,,,,,108.50571260001743,108.52164739998989,109.22091730003012,109.22091730003012,109.7205747999833,109.70494580001105,109.705707599991,109.7205747999833,109.9534779000096,110.13670869998168,110.13670869998168,110.37096460000612,space,1,0.23023569997167215,None,110.37522789998911,110.88617150002392,111.88529529998777,111.86950600001728,,,,,,,,,,,,,,,,,006,001,2025-04-28_22h35.22.477,Cued GoNogo Task,2024.2.4,60.223114597228246,2025-04-28 22h35.34.320385 +0200,
block/CondBlock1.xlsx,You are about to start a block of type 1 trials.,24,24,0,Go,Go,0.2,0.2,0.05,space,blue,vertical,space,5.773665399989113,None,space,1,0.25845769996521994,None,,,,0,0,0,0,0,24,24,24,111.88529529998777,,,,,,,,,,,,,,,,111.86991800001124,111.88529529998777,112.58479749999242,112.58479749999242,113.08427940000547,113.06863659998635,113.0692825000151,113.08427940000547,113.28409820003435,113.48406069999328,113.48406069999328,113.75149430002784,space,1,0.25845769996521994,None,113.75509809999494,114.26679460000014,115.26598840003135,115.24976390000666,,,,,,,,,,,,,,,,,006,001,2025-04-28_22h35.22.477,Cued GoNogo Task,2024.2.4,60.223114597228246,2025-04-28 22h35.34.320385 +0200,
block/CondBlock1.xlsx,You are about to start a block of type 1 trials.,25,25,0,Go,Go,0.15,0.2,0.05,space,blue,vertical,space,5.773665399989113,None,space,1,0.27200610004365444,None,,,,0,0,0,0,0,25,25,25,115.26598840003135,,,,,,,,,,,,,,,,115.25001110002631,115.26598840003135,115.9652766000363,115.9652766000363,116.46508140000515,116.44912750000367,116.4498177000205,116.46508140000515,116.61476409999887,116.81460739998147,116.81460739998147,117.09913049999159,space,1,0.27200610004365444,None,117.10418580000987,117.61398439999903,118.61303050001152,118.59704349999083,,,,,,,,,,,,,,,,,006,001,2025-04-28_22h35.22.477,Cued GoNogo Task,2024.2.4,60.223114597228246,2025-04-28 22h35.34.320385 +0200,
block/CondBlock1.xlsx,You are about to start a block of type 1 trials.,26,26,0,NoGo,NoGo,0.2,0.2,0.05,none,blue,vertical,space,5.773665399989113,None,space,0,0.24994680000236258,None,,,,0,0,0,0,0,26,26,26,118.61303050001152,,,,,,,,,,,,,,,,118.59727199998451,118.61303050001152,119.3126550000161,119.3126550000161,119.81227480003145,119.79642219998641,119.79693690000568,119.81227480003145,120.01211760001024,120.21197380003287,120.21197380003287,120.46409950003726,space,0,0.24994680000236258,None,120.4689781999914,120.97780550003517,121.97711919998983,121.9612660999992,,,,,,,,,,,,,,,,,006,001,2025-04-28_22h35.22.477,Cued GoNogo Task,2024.2.4,60.223114597228246,2025-04-28 22h35.34.320385 +0200,
block/CondBlock1.xlsx,You are about to start a block of type 1 trials.,27,27,0,Go,Go,0.29,0.05,0.2,space,green,horizontal,space,5.773665399989113,None,space,1,0.3721149999764748,None,,,,0,0,0,0,0,27,27,27,121.97711919998983,,,,,,,,,,,,,,,,121.96158669999568,121.97711919998983,122.67652239999734,122.67652239999734,123.17599540000083,123.16015710000647,123.16084399999818,123.17599540000083,123.47579559998121,123.6589233999839,123.6589233999839,124.04333160002716,space,1,0.3721149999764748,None,124.04745459998958,124.55817680002656,125.55739420000464,125.5414094000007,,,,,,,,,,,,,,,,,006,001,2025-04-28_22h35.22.477,Cued GoNogo Task,2024.2.4,60.223114597228246,2025-04-28 22h35.34.320385 +0200,
block/CondBlock1.xlsx,You are about to start a block of type 1 trials.,28,28,0,Go,Go,0.24,0.2,0.05,space,blue,vertical,space,5.773665399989113,None,space,1,0.3055385000188835,None,,,,0,0,0,0,0,28,28,28,125.55739420000464,,,,,,,,,,,,,,,,125.54169759998331,125.55739420000464,126.25703460001387,126.25703460001387,126.75644900003681,126.74035999999614,126.74092960002599,126.75644900003681,127.00630890001776,127.18942670000251,127.18942670000251,127.5068414999987,space,1,0.3055385000188835,None,127.51085890003014,128.0220519999857,129.02127890003612,129.00518039998133,,,,,,,,,,,,,,,,,006,001,2025-04-28_22h35.22.477,Cued GoNogo Task,2024.2.4,60.223114597228246,2025-04-28 22h35.34.320385 +0200,
block/CondBlock1.xlsx,You are about to start a block of type 1 trials.,29,29,0,Go,Go,0.15,0.05,0.2,space,green,horizontal,space,5.773665399989113,None,space,1,0.29249259998323396,None,,,,0,0,0,0,0,29,29,29,129.02127890003612,,,,,,,,,,,,,,,,129.00544760003686,129.02127890003612,129.72077050001826,129.72077050001826,130.22021120000863,130.20414420001907,130.20466679998208,130.22021120000863,130.37027960002888,130.56994419998955,130.56994419998955,130.87067660002504,space,1,0.29249259998323396,None,130.8740121999872,131.38596719998168,132.38520630000858,132.3695391000365,,,,,,,,,,,,,,,,,006,001,2025-04-28_22h35.22.477,Cued GoNogo Task,2024.2.4,60.223114597228246,2025-04-28 22h35.34.320385 +0200,
block/CondBlock1.xlsx,You are about to start a block of type 1 trials.,30,30,0,Go,Go,0.23,0.2,0.05,space,green,vertical,space,5.773665399989113,None,space,1,0.32620569999562576,None,,,,0,0,0,0,0,30,30,30,132.38520630000858,,,,,,,,,,,,,,,,132.36977109999862,132.38520630000858,133.08466390002286,133.08466390002286,133.58419800002594,133.56847549998201,133.56928039999912,133.58419800002594,133.8172748000361,134.0004150000168,134.0004150000168,134.33438940002816,space,1,0.32620569999562576,None,134.33784029999515,134.84973289998015,135.84904110000934,135.83263920003083,,,,,,,,,,,,,,,,,006,001,2025-04-28_22h35.22.477,Cued GoNogo Task,2024.2.4,60.223114597228246,2025-04-28 22h35.34.320385 +0200,
block/CondBlock1.xlsx,You are about to start a block of type 1 trials.,31,31,0,Go,Go,0.28,0.2,0.05,space,green,vertical,space,5.773665399989113,None,space,1,0.3090741999913007,None,,,,0,0,0,0,0,31,31,31,135.84904110000934,,,,,,,,,,,,,,,,135.8328016999876,135.84904110000934,136.54841059999308,136.54841059999308,137.04792530002305,137.03236210002797,137.03310280002188,137.04792530002305,137.33111989998724,137.51424490002682,137.51424490002682,137.83199570002034,space,1,0.3090741999913007,None,137.83638440002687,138.34708770003635,139.3461646999931,139.33051759999944,,,,,,,,,,,,,,,,,006,001,2025-04-28_22h35.22.477,Cued GoNogo Task,2024.2.4,60.223114597228246,2025-04-28 22h35.34.320385 +0200,
block/CondBlock1.xlsx,You are about to start a block of type 1 trials.,32,32,0,Go,Go,0.19,0.2,0.05,space,green,vertical,space,5.773665399989113,None,space,1,0.3665093000163324,None,,,,0,0,0,0,0,32,32,32,139.3461646999931,,,,,,,,,,,,,,,,139.33087000000523,139.3461646999931,140.04551500000525,140.04551500000525,140.54502259998117,140.5290032000048,140.52954080002382,140.54502259998117,140.74486959999194,140.9281750000082,140.9281750000082,141.29678959999,space,1,0.3665093000163324,None,141.30067510000663,141.81080179999117,142.8099554000073,142.7937871000031,,,,,,,,,,,,,,,,,006,001,2025-04-28_22h35.22.477,Cued GoNogo Task,2024.2.4,60.223114597228246,2025-04-28 22h35.34.320385 +0200,
block/CondBlock1.xlsx,You are about to start a block of type 1 trials.,33,33,0,Go,Go,0.12,0.2,0.05,space,green,vertical,space,5.773665399989113,None,space,1,0.45742900000186637,None,,,,0,0,0,0,0,33,33,33,142.8099554000073,,,,,,,,,,,,,,,,142.79402600001777,142.8099554000073,143.5093594000209,143.5093594000209,144.00900740001816,143.99276639998425,143.99326090002432,144.00900740001816,144.14201680000406,144.32532800000627,144.32532800000627,144.79281600000104,space,1,0.45742900000186637,None,144.79543300002115,145.30786589998752,146.30711890000384,146.29085749998922,,,,,,,,,,,,,,,,,006,001,2025-04-28_22h35.22.477,Cued GoNogo Task,2024.2.4,60.223114597228246,2025-04-28 22h35.34.320385 +0200,
block/CondBlock1.xlsx,You are about to start a block of type 1 trials.,34,34,0,Go,Go,0.18,0.2,0.05,space,blue,vertical,space,5.773665399989113,None,space,1,0.3419628000119701,None,,,,0,0,0,0,0,34,34,34,146.30711890000384,,,,,,,,,,,,,,,,146.29116190003697,146.30711890000384,147.0063794000307,147.0063794000307,147.50611429999117,147.490159100038,147.49084039998706,147.50611429999117,147.68927600001916,147.8724275000277,147.8724275000277,148.22381190001033,space,1,0.3419628000119701,None,148.22882780001964,148.73839369998313,149.73751370003447,149.7216115000192,,,,,,,,,,,,,,,,,006,001,2025-04-28_22h35.22.477,Cued GoNogo Task,2024.2.4,60.223114597228246,2025-04-28 22h35.34.320385 +0200,
block/CondBlock1.xlsx,You are about to start a block of type 1 trials.,35,35,0,Go,Go,0.21,0.2,0.05,space,blue,vertical,space,5.773665399989113,None,space,1,0.2713215000112541,None,,,,0,0,0,0,0,35,35,35,149.73751370003447,,,,,,,,,,,,,,,,149.7218739000382,149.73751370003447,150.4372536999872,150.4372536999872,150.93642959999852,150.92048110003816,150.92097660002764,150.93642959999852,151.15313240000978,151.3362555000349,151.3362555000349,151.62059020000743,space,1,0.2713215000112541,None,151.62448380002752,152.13557069998933,153.1347906999872,153.11888920003548,,,,,,,,,,,,,,,,,006,001,2025-04-28_22h35.22.477,Cued GoNogo Task,2024.2.4,60.223114597228246,2025-04-28 22h35.34.320385 +0200,
block/CondBlock1.xlsx,You are about to start a block of type 1 trials.,36,36,0,Go,Go,0.2,0.2,0.05,space,green,vertical,space,5.773665399989113,None,space,1,0.2901234999881126,None,,,,0,0,0,0,0,36,36,36,153.1347906999872,,,,,,,,,,,,,,,,153.11932699999306,153.1347906999872,153.8341916000354,153.8341916000354,154.33384189999197,154.31810630002292,154.31884389999323,154.33384189999197,154.5335114999907,154.7335322999861,154.7335322999861,155.0348445000127,space,1,0.2901234999881126,None,155.04103800002486,155.5493439999991,156.54862359998515,156.53283869998995,,,,,,,,,,,,,,,,,006,001,2025-04-28_22h35.22.477,Cued GoNogo Task,2024.2.4,60.223114597228246,2025-04-28 22h35.34.320385 +0200,
block/CondBlock1.xlsx,You are about to start a block of type 1 trials.,37,37,0,Go,Go,0.45,0.05,0.2,space,blue,horizontal,space,5.773665399989113,None,space,1,0.25729250005679205,None,,,,0,0,0,0,0,37,37,37,156.54862359998515,,,,,,,,,,,,,,,,156.53316980000818,156.54862359998515,157.24797870003385,157.24797870003385,157.74777359998552,157.73157760000322,157.73223730002064,157.74777359998552,158.1971942000091,158.3971951000276,158.3971951000276,158.66469060000964,space,1,0.25729250005679205,None,158.66869790002238,159.18000230001053,160.17886560002808,160.1632925000158,,,,,,,,,,,,,,,,,006,001,2025-04-28_22h35.22.477,Cued GoNogo Task,2024.2.4,60.223114597228246,2025-04-28 22h35.34.320385 +0200,
block/CondBlock1.xlsx,You are about to start a block of type 1 trials.,38,38,0,Go,Go,0.13,0.05,0.2,space,blue,horizontal,space,5.773665399989113,None,space,1,0.2653831000206992,None,,,,0,0,0,0,0,38,38,38,160.17886560002808,,,,,,,,,,,,,,,,160.16346340003656,160.17886560002808,160.87836919998517,160.87836919998517,161.37796489999164,161.36198470002273,161.36254450003617,161.37796489999164,161.5111453999998,161.69440789998043,161.69440789998043,161.96273909998126,space,1,0.2653831000206992,None,161.96749900002033,162.47703559999354,163.4762769000372,163.4603392999852,,,,,,,,,,,,,,,,,006,001,2025-04-28_22h35.22.477,Cued GoNogo Task,2024.2.4,60.223114597228246,2025-04-28 22h35.34.320385 +0200,
block/CondBlock1.xlsx,You are about to start a block of type 1 trials.,39,39,0,Go,Go,0.46,0.2,0.05,space,blue,vertical,space,5.773665399989113,None,space,1,0.28145549999317154,None,,,,0,0,0,0,0,39,39,39,163.4762769000372,,,,,,,,,,,,,,,,163.46060390002094,163.4762769000372,164.17565360001754,164.17565360001754,164.67511519999243,164.65903640002944,164.65961410000455,164.67511519999243,165.14162150002085,165.32459630002268,165.32459630002268,165.60929390002275,space,1,0.28145549999317154,None,165.6134577000048,166.12398820003727,167.12337099999422,167.10723620001227,,,,,,,,,,,,,,,,,006,001,2025-04-28_22h35.22.477,Cued GoNogo Task,2024.2.4,60.223114597228246,2025-04-28 22h35.34.320385 +0200,
block/CondBlock1.xlsx,You are about to start a block of type 1 trials.,40,40,0,Go,Go,0.29,0.2,0.05,space,blue,vertical,space,5.773665399989113,None,space,1,0.24888789997203276,None,,,,0,0,0,0,0,40,40,40,167.12337099999422,,,,,,,,,,,,,,,,167.10754019999877,167.12337099999422,167.8228017000365,167.8228017000365,168.32230579998577,168.30657339998288,168.3072750000283,168.32230579998577,168.62176469998667,168.80501000001095,168.80501000001095,169.05693060002523,space,1,0.24888789997203276,None,169.06186700001126,169.57124269998167,170.57032090000575,170.5548518000287,,,,,,,,,,,,,,,,,006,001,2025-04-28_22h35.22.477,Cued GoNogo Task,2024.2.4,60.223114597228246,2025-04-28 22h35.34.320385 +0200,
block/CondBlock1.xlsx,You are about to start a block of type 1 trials.,41,41,0,Go,Go,0.22,0.2,0.05,space,blue,vertical,space,5.773665399989113,None,space,1,0.20403139997506514,None,,,,0,0,0,0,0,41,41,41,170.57032090000575,,,,,,,,,,,,,,,,170.5552013000124,170.57032090000575,171.26980459998595,171.26980459998595,171.76939070003573,171.75352909998037,171.75427410000702,171.76939070003573,172.00266160001047,172.18575559998862,172.18575559998862,172.4031610999955,space,1,0.20403139997506514,None,172.40627310000127,172.9185131000122,173.91769999999087,173.90146449999884,,,,,,,,,,,,,,,,,006,001,2025-04-28_22h35.22.477,Cued GoNogo Task,2024.2.4,60.223114597228246,2025-04-28 22h35.34.320385 +0200,
block/CondBlock1.xlsx,You are about to start a block of type 1 trials.,42,42,0,Go,Go,0.49,0.2,0.05,space,blue,vertical,space,5.773665399989113,None,space,1,0.15963040001224726,None,,,,0,0,0,0,0,42,42,42,173.91769999999087,,,,,,,,,,,,,,,,173.90165590000106,173.91769999999087,174.61710660002427,174.61710660002427,175.1166012000176,175.10105659998953,175.1018158000079,175.1166012000176,175.61643940000795,175.79933409998193,175.79933409998193,175.96712109999498,space,1,0.15963040001224726,None,175.97239190002438,176.48228980001295,177.4814408000093,177.46574630000396,,,,,,,,,,,,,,,,,006,001,2025-04-28_22h35.22.477,Cued GoNogo Task,2024.2.4,60.223114597228246,2025-04-28 22h35.34.320385 +0200,
block/CondBlock1.xlsx,You are about to start a block of type 1 trials.,43,43,0,Go,Go,0.2,0.2,0.05,space,blue,vertical,space,5.773665399989113,None,space,1,0.2462707000086084,None,,,,0,0,0,0,0,43,43,43,177.4814408000093,,,,,,,,,,,,,,,,177.46608320000814,177.4814408000093,178.18071089999285,178.18071089999285,178.68048600002658,178.66483989998233,178.66574440000113,178.68048600002658,178.88020880002296,179.08009200001834,179.08009200001834,179.33082239999203,space,1,0.2462707000086084,None,179.33380180003587,179.84610949998023,180.84533089998877,180.82906260003801,,,,,,,,,,,,,,,,,006,001,2025-04-28_22h35.22.477,Cued GoNogo Task,2024.2.4,60.223114597228246,2025-04-28 22h35.34.320385 +0200,
block/CondBlock1.xlsx,You are about to start a block of type 1 trials.,44,44,0,Go,Go,0.3,0.05,0.2,space,blue,horizontal,space,5.773665399989113,None,space,1,0.1904588000033982,None,,,,0,0,0,0,0,44,44,44,180.84533089998877,,,,,,,,,,,,,,,,180.82933059998322,180.84533089998877,181.5446678000153,181.5446678000153,182.044146500004,182.02835859998595,182.0290691999835,182.044146500004,182.34407150000334,182.54385680000996,182.54385680000996,182.74510160001228,space,1,0.1904588000033982,None,182.7500383000006,183.25994070002344,184.25919429998612,184.24395520001417,,,,,,,,,,,,,,,,,006,001,2025-04-28_22h35.22.477,Cued GoNogo Task,2024.2.4,60.223114597228246,2025-04-28 22h35.34.320385 +0200,
block/CondBlock1.xlsx,You are about to start a block of type 1 trials.,45,45,0,NoGo,NoGo,0.21,0.05,0.2,none,green,horizontal,space,5.773665399989113,None,space,0,0.25210530002368614,None,,,,0,0,0,0,0,45,45,45,184.25919429998612,,,,,,,,,,,,,,,,184.24438340001507,184.25919429998612,184.95850619999692,184.95850619999692,185.4583091000095,185.44239370001014,185.4430929000373,185.4583091000095,185.67475469998317,185.85788900003536,185.85788900003536,186.12578950001625,space,0,0.25210530002368614,None,186.1290245000273,186.6405973000219,187.63964409998152,187.6236848999979,,,,,,,,,,,,,,,,,006,001,2025-04-28_22h35.22.477,Cued GoNogo Task,2024.2.4,60.223114597228246,2025-04-28 22h35.34.320385 +0200,
block/CondBlock1.xlsx,You are about to start a block of type 1 trials.,46,46,0,NoGo,NoGo,0.45,0.05,0.2,none,blue,horizontal,space,5.773665399989113,None,None,1,,,,,,0,0,0,0,0,46,46,46,187.63964409998152,,,,,,,,,,,,,,,,187.62391349999234,187.63964409998152,188.33906410000054,188.33906410000054,188.838645300013,188.82275300001493,188.8233789000078,188.838645300013,189.28833559999475,189.48814949998632,189.48814949998632,189.9718686999986,None,1,,,189.97456120001152,190.48726580000948,191.4867082000128,191.47056400001748,189.98763330001384,189.98763330001384,,,,,,,,,,,,,,,006,001,2025-04-28_22h35.22.477,Cued GoNogo Task,2024.2.4,60.223114597228246,2025-04-28 22h35.34.320385 +0200,
block/CondBlock1.xlsx,You are about to start a block of type 1 trials.,47,47,0,Go,Go,0.24,0.05,0.2,space,green,horizontal,space,5.773665399989113,None,space,1,0.3441998999915086,None,,,,0,0,0,0,0,47,47,47,191.4867082000128,,,,,,,,,,,,,,,,191.47089799999958,191.4867082000128,192.18592790002003,192.18592790002003,192.68553479999537,192.66957149998052,192.67026929999702,192.68553479999537,192.93534140003612,193.118481100013,193.118481100013,193.46936659998028,space,1,0.3441998999915086,None,193.4738456000341,193.9844970999984,194.98365760000888,194.96775120001985,,,,,,,,,,,,,,,,,006,001,2025-04-28_22h35.22.477,Cued GoNogo Task,2024.2.4,60.223114597228246,2025-04-28 22h35.34.320385 +0200,
block/CondBlock1.xlsx,You are about to start a block of type 1 trials.,48,48,0,NoGo,NoGo,0.15,0.2,0.05,none,blue,vertical,space,5.773665399989113,None,None,1,,,,,,0,0,0,0,0,48,48,48,194.98365760000888,,,,,,,,,,,,,,,,194.96803879999788,194.98365760000888,195.68308809999144,195.68308809999144,196.1827229000046,196.16670519998297,196.16728320001857,196.1827229000046,196.33257000002777,196.53243180003483,196.53243180003483,197.01590200001374,None,1,,,197.01822690002155,197.53141719999257,198.53095420001773,198.5148604999995,197.03182989999186,197.03182989999186,,,,,,,,,,,,,,,006,001,2025-04-28_22h35.22.477,Cued GoNogo Task,2024.2.4,60.223114597228246,2025-04-28 22h35.34.320385 +0200,
block/CondBlock1.xlsx,You are about to start a block of type 1 trials.,49,49,0,Go,Go,0.12,0.05,0.2,space,blue,horizontal,space,5.773665399989113,None,space,1,0.288478699978441,None,,,,0,0,0,0,0,49,49,49,198.53095420001773,,,,,,,,,,,,,,,,198.51517590001458,198.53095420001773,199.23026189999655,199.23026189999655,199.72966630000155,199.7138676000177,199.7148196999915,199.72966630000155,199.86289300001226,200.0461904000258,200.0461904000258,200.3468360999832,space,1,0.288478699978441,None,200.3504142999882,200.86205699999118,201.86136610002723,201.8454853000003,,,,,,,,,,,,,,,,,006,001,2025-04-28_22h35.22.477,Cued GoNogo Task,2024.2.4,60.223114597228246,2025-04-28 22h35.34.320385 +0200,
block/CondBlock1.xlsx,You are about to start a block of type 1 trials.,50,50,0,Go,Go,0.22,0.2,0.05,space,green,vertical,space,5.773665399989113,None,space,1,0.31284380005672574,None,,,,0,0,0,0,0,50,50,50,201.86136610002723,,,,,,,,,,,,,,,,201.84574670001166,201.86136610002723,202.5606993000256,202.5606993000256,203.06030630000168,203.04441129998304,203.04503720003413,203.06030630000168,203.29344189999392,203.47683370002778,203.47683370002778,203.79431600001408,space,1,0.31284380005672574,None,203.7977988999919,204.30920870002592,205.30882640002528,205.29253079998307,,,,,,,,,,,,,,,,,006,001,2025-04-28_22h35.22.477,Cued GoNogo Task,2024.2.4,60.223114597228246,2025-04-28 22h35.34.320385 +0200,
block/CondBlock1.xlsx,You are about to start a block of type 1 trials.,51,51,0,Go,Go,0.28,0.05,0.2,space,green,horizontal,space,5.773665399989113,None,space,1,0.3769004999776371,None,,,,0,0,0,0,0,51,51,51,205.30882640002528,,,,,,,,,,,,,,,,205.29277330002515,205.30882640002528,206.0079169999808,206.0079169999808,206.5076472000219,206.49151580000762,206.49217829998815,206.5076472000219,206.79056629998377,206.9737067000242,206.9737067000242,207.3581414000364,space,1,0.3769004999776371,None,207.36281700001564,207.87296659999993,208.87228320003487,208.85670230002142,,,,,,,,,,,,,,,,,006,001,2025-04-28_22h35.22.477,Cued GoNogo Task,2024.2.4,60.223114597228246,2025-04-28 22h35.34.320385 +0200,
block/CondBlock1.xlsx,You are about to start a block of type 1 trials.,52,52,0,Go,Go,0.23,0.2,0.05,space,green,vertical,space,5.773665399989113,None,space,1,0.3259270999697037,None,,,,0,0,0,0,0,52,52,52,208.87228320003487,,,,,,,,,,,,,,,,208.85709750000387,208.87228320003487,209.5716715999879,209.5716715999879,210.07126009999774,210.05518460000167,210.05576990003465,210.07126009999774,210.3044756000163,210.48774320003577,210.48774320003577,210.82131159998244,space,1,0.3259270999697037,None,210.8264411999844,211.33691870002076,212.33617650001543,212.32030850002775,,,,,,,,,,,,,,,,,006,001,2025-04-28_22h35.22.477,Cued GoNogo Task,2024.2.4,60.223114597228246,2025-04-28 22h35.34.320385 +0200,
block/CondBlock1.xlsx,You are about to start a block of type 1 trials.,53,53,0,Go,Go,0.22,0.05,0.2,space,green,horizontal,space,5.773665399989113,None,space,1,0.3025160999968648,None,,,,0,0,0,0,0,53,53,53,212.33617650001543,,,,,,,,,,,,,,,,212.3206785999937,212.33617650001543,213.03546199999982,213.03546199999982,213.5351265000063,213.51892900001258,213.51947240001755,213.5351265000063,213.7682330000098,213.95151809998788,213.95151809998788,214.26915459998418,space,1,0.3025160999968648,None,214.27382280002348,214.78397759998916,215.7832639000262,215.76732959999936,,,,,,,,,,,,,,,,,006,001,2025-04-28_22h35.22.477,Cued GoNogo Task,2024.2.4,60.223114597228246,2025-04-28 22h35.34.320385 +0200,
block/CondBlock1.xlsx,You are about to start a block of type 1 trials.,54,54,0,NoGo,NoGo,0.14,0.05,0.2,none,green,horizontal,space,5.773665399989113,None,None,1,,,,,,0,0,0,0,0,54,54,54,215.7832639000262,,,,,,,,,,,,,,,,215.76763760001631,215.7832639000262,216.48264010000275,216.48264010000275,216.98229620000347,216.96654090000084,216.9672460000147,216.98229620000347,217.13216630002717,217.3152927000192,217.3152927000192,217.79910100001143,None,1,,,217.80200620001415,218.31438440002967,219.3137463000021,219.29765309998766,217.8148736000294,217.8148736000294,,,,,,,,,,,,,,,006,001,2025-04-28_22h35.22.477,Cued GoNogo Task,2024.2.4,60.223114597228246,2025-04-28 22h35.34.320385 +0200,
block/CondBlock1.xlsx,You are about to start a block of type 1 trials.,55,55,0,Go,Go,0.15,0.2,0.05,space,blue,vertical,space,5.773665399989113,None,space,1,0.3043353999964893,None,,,,0,0,0,0,0,55,55,55,219.3137463000021,,,,,,,,,,,,,,,,219.29791470000055,219.3137463000021,220.0132121000206,220.0132121000206,220.5125427999883,220.49676559999352,220.49734450003598,220.5125427999883,220.66262289998122,220.8622946999967,220.8622946999967,221.17983819998335,space,1,0.3043353999964893,None,221.18429659999674,221.69503860000987,222.6940678000101,222.67871180002112,,,,,,,,,,,,,,,,,006,001,2025-04-28_22h35.22.477,Cued GoNogo Task,2024.2.4,60.223114597228246,2025-04-28 22h35.34.320385 +0200,
block/CondBlock1.xlsx,You are about to start a block of type 1 trials.,56,56,0,Go,Go,0.47,0.2,0.05,space,blue,vertical,space,5.773665399989113,None,space,1,0.34310489997733384,None,,,,0,0,0,0,0,56,56,56,222.6940678000101,,,,,,,,,,,,,,,,222.67911199998343,222.6940678000101,223.39366860000882,223.39366860000882,223.89324260002468,223.87726290000137,223.87799110001652,223.89324260002468,224.37603189999936,224.5593777000322,224.5593777000322,224.91018100001384,space,1,0.34310489997733384,None,224.915453900001,225.42550399998436,,226.42451250000158,,,,,,,,,,,,,,,,,006,001,2025-04-28_22h35.22.477,Cued GoNogo Task,2024.2.4,60.223114597228246,2025-04-28 22h35.34.320385 +0200,
block/CondBlock1.xlsx,You are about to start a block of type 1 trials.,57,57,0,NoGo,NoGo,0.42,0.2,0.05,none,green,vertical,space,5.773665399989113,None,space,0,0.2952549000037834,None,,,,0,0,0,0,0,57,57,57,226.4410047000274,,,,,,,,,,,,,,,,226.42476800002623,226.4410047000274,227.12401030003093,227.14070839999476,227.6235161999939,227.608058599988,227.6089644000167,227.6235161999939,228.05651060002856,228.2397391999839,228.2397391999839,228.540382999985,space,0,0.2952549000037834,None,228.54429699998582,229.05583800002933,230.05483819998335,230.03902690001996,,,,,,,,,,,,,,,,,006,001,2025-04-28_22h35.22.477,Cued GoNogo Task,2024.2.4,60.223114597228246,2025-04-28 22h35.34.320385 +0200,
block/CondBlock1.xlsx,You are about to start a block of type 1 trials.,58,58,0,Go,Go,0.22,0.05,0.2,space,green,horizontal,space,5.773665399989113,None,space,1,0.3529706000117585,None,,,,0,0,0,0,0,58,58,58,230.05483819998335,,,,,,,,,,,,,,,,230.03944520000368,230.05483819998335,230.75433020002674,230.75433020002674,231.253919699986,231.23786900000414,231.23854950000532,231.253919699986,231.48697040003026,231.67043270001886,231.67043270001886,232.03766680002445,space,1,0.3529706000117585,None,232.04170210001757,232.55269240000052,233.55180590000236,233.53590560000157,,,,,,,,,,,,,,,,,006,001,2025-04-28_22h35.22.477,Cued GoNogo Task,2024.2.4,60.223114597228246,2025-04-28 22h35.34.320385 +0200,
block/CondBlock1.xlsx,You are about to start a block of type 1 trials.,59,59,0,Go,Go,0.3,0.2,0.05,space,blue,vertical,space,5.773665399989113,None,space,1,0.3558385000214912,None,,,,0,0,0,0,0,59,59,59,233.55180590000236,,,,,,,,,,,,,,,,233.53617829998257,233.55180590000236,234.25138349999906,234.25138349999906,234.75100240000756,234.73507970001083,234.73575110000093,234.75100240000756,235.05059300002176,235.25043590000132,235.25043590000132,235.61804969998775,space,1,0.3558385000214912,None,235.62180329998955,236.13305479998235,237.13249590003397,237.1164038000279,,,,,,,,,,,,,,,,,006,001,2025-04-28_22h35.22.477,Cued GoNogo Task,2024.2.4,60.223114597228246,2025-04-28 22h35.34.320385 +0200,
block/CondBlock1.xlsx,You are about to start a block of type 1 trials.,60,60,0,NoGo,NoGo,0.24,0.2,0.05,none,blue,vertical,space,5.773665399989113,None,None,1,,,,,,0,0,0,0,0,60,60,60,237.13249590003397,,,,,,,,,,,,,,,,237.11665310000535,237.13249590003397,237.83170099998824,237.83170099998824,238.33139160001883,238.31540740001947,238.31605349999154,238.33139160001883,238.58100870001363,238.76453829999082,238.76453829999082,239.24794820003444,None,1,,,239.250747699989,239.7634063999867,240.76258560002316,240.7466151000117,239.26392679999117,239.26392679999117,,,,,,,,,,,,,,,006,001,2025-04-28_22h35.22.477,Cued GoNogo Task,2024.2.4,60.223114597228246,2025-04-28 22h35.34.320385 +0200,
block/CondBlock1.xlsx,You are about to start a block of type 1 trials.,61,61,0,NoGo,NoGo,0.1,0.2,0.05,none,green,vertical,space,5.773665399989113,None,None,1,,,,,,0,0,0,0,0,61,61,61,240.76258560002316,,,,,,,,,,,,,,,,240.7468502999982,240.76258560002316,241.46210290002637,241.46210290002637,241.9619204000337,241.94559469999513,241.94619330001296,241.9619204000337,242.0615828000009,242.2614153000177,242.2614153000177,242.7451246000128,None,1,,,242.7456384000252,243.2607148999814,244.25978550000582,244.24428310000803,242.7608877000166,242.7608877000166,,,,,,,,,,,,,,,006,001,2025-04-28_22h35.22.477,Cued GoNogo Task,2024.2.4,60.223114597228246,2025-04-28 22h35.34.320385 +0200,
block/CondBlock1.xlsx,You are about to start a block of type 1 trials.,62,62,0,Go,Go,0.45,0.05,0.2,space,blue,horizontal,space,5.773665399989113,None,space,1,0.28935410000849515,None,,,,0,0,0,0,0,62,62,62,244.25978550000582,,,,,,,,,,,,,,,,244.24476560001494,244.25978550000582,244.9592171999975,244.9592171999975,245.45884139998816,245.44255839998368,245.44299360003788,245.45884139998816,245.90835360001074,246.10841340001207,246.10841340001207,246.40899289998924,space,1,0.28935410000849515,None,246.41277470003115,246.92421150003793,247.9235109000001,247.90734849998262,,,,,,,,,,,,,,,,,006,001,2025-04-28_22h35.22.477,Cued GoNogo Task,2024.2.4,60.223114597228246,2025-04-28 22h35.34.320385 +0200,
block/CondBlock1.xlsx,You are about to start a block of type 1 trials.,63,63,0,Go,Go,0.1,0.05,0.2,space,green,horizontal,space,5.773665399989113,None,space,1,0.28004139999393374,None,,,,0,0,0,0,0,63,63,63,247.9235109000001,,,,,,,,,,,,,,,,247.90763660002267,247.9235109000001,248.6226994000026,248.6226994000026,249.1224998999969,249.10656739998376,249.10720319999382,249.1224998999969,249.2224009000347,249.4221684000222,249.4221684000222,249.70642390003195,space,1,0.28004139999393374,None,249.70983010000782,250.22165359999053,251.220655800018,251.20491610001773,,,,,,,,,,,,,,,,,006,001,2025-04-28_22h35.22.477,Cued GoNogo Task,2024.2.4,60.223114597228246,2025-04-28 22h35.34.320385 +0200,
block/CondBlock1.xlsx,You are about to start a block of type 1 trials.,64,64,0,Go,Go,0.19,0.05,0.2,space,blue,horizontal,space,5.773665399989113,None,space,1,0.2913551999954507,None,,,,0,0,0,0,0,64,64,64,251.220655800018,,,,,,,,,,,,,,,,251.2051797999884,251.220655800018,251.92016580002382,251.92016580002382,252.41976550000254,252.40413059998536,252.4049512000056,252.41976550000254,252.6194679000182,252.8026525999885,252.8026525999885,253.10339549998753,space,1,0.2913551999954507,None,253.10628390003694,253.61875530000543,254.61793900001794,254.60241649998352,,,,,,,,,,,,,,,,,006,001,2025-04-28_22h35.22.477,Cued GoNogo Task,2024.2.4,60.223114597228246,2025-04-28 22h35.34.320385 +0200,
block/CondBlock1.xlsx,You are about to start a block of type 1 trials.,65,65,0,Go,Go,0.21,0.2,0.05,space,blue,vertical,space,5.773665399989113,None,space,1,0.30129109998233616,None,,,,0,0,0,0,0,65,65,65,254.61793900001794,,,,,,,,,,,,,,,,254.6027563000098,254.61793900001794,255.31736310000997,255.31736310000997,255.81696840003133,255.80088410002645,255.8015181000228,255.81696840003133,256.033343099989,256.21672349999426,256.21672349999426,256.53410290001193,space,1,0.30129109998233616,None,256.5395957999863,257.04932789999293,258.048570199986,258.03239350003423,,,,,,,,,,,,,,,,,006,001,2025-04-28_22h35.22.477,Cued GoNogo Task,2024.2.4,60.223114597228246,2025-04-28 22h35.34.320385 +0200,
block/CondBlock1.xlsx,You are about to start a block of type 1 trials.,66,66,0,Go,Go,0.18,0.05,0.2,space,blue,horizontal,space,5.773665399989113,None,space,1,0.30524409998906776,None,,,,0,0,0,0,0,66,66,66,258.048570199986,,,,,,,,,,,,,,,,258.0326636999962,258.048570199986,258.74788530002115,258.74788530002115,259.2473323000013,259.2316690000007,259.232363099989,259.2473323000013,259.43087290000403,259.6138280000305,259.6138280000305,259.9314331000205,space,1,0.30524409998906776,None,259.93584450002527,260.4464430999942,261.4458061000332,261.4299211000325,,,,,,,,,,,,,,,,,006,001,2025-04-28_22h35.22.477,Cued GoNogo Task,2024.2.4,60.223114597228246,2025-04-28 22h35.34.320385 +0200,
block/CondBlock1.xlsx,You are about to start a block of type 1 trials.,67,67,0,Go,Go,0.29,0.2,0.05,space,green,vertical,space,5.773665399989113,None,space,1,0.32664099999237806,None,,,,0,0,0,0,0,67,67,67,261.4458061000332,,,,,,,,,,,,,,,,261.4302559000207,261.4458061000332,262.1450609000167,262.1450609000167,262.64465500001097,262.6288455000031,262.62958990002517,262.64465500001097,262.94434109999565,263.1276280999882,263.1276280999882,263.4614047000068,space,1,0.32664099999237806,None,263.4646151000052,263.97692799998913,264.97591430001194,264.96026030002395,,,,,,,,,,,,,,,,,006,001,2025-04-28_22h35.22.477,Cued GoNogo Task,2024.2.4,60.223114597228246,2025-04-28 22h35.34.320385 +0200,
block/CondBlock1.xlsx,You are about to start a block of type 1 trials.,68,68,0,NoGo,NoGo,0.24,0.2,0.05,none,blue,vertical,space,5.773665399989113,None,None,1,,,,,,0,0,0,0,0,68,68,68,264.97591430001194,,,,,,,,,,,,,,,,264.9605404000031,264.97591430001194,265.6755673000007,265.6755673000007,266.17528179998044,266.1596889999928,266.1606535000028,266.17528179998044,266.4250193000189,266.60807240003487,266.60807240003487,267.0920549000148,None,1,,,267.09496620000573,267.60710530000506,268.6064884000225,268.5905974000343,267.10781399998814,267.10781399998814,,,,,,,,,,,,,,,006,001,2025-04-28_22h35.22.477,Cued GoNogo Task,2024.2.4,60.223114597228246,2025-04-28 22h35.34.320385 +0200,
block/CondBlock1.xlsx,You are about to start a block of type 1 trials.,69,69,0,Go,Go,0.27,0.05,0.2,space,green,horizontal,space,5.773665399989113,None,space,1,0.27863600000273436,None,,,,0,0,0,0,0,69,69,69,268.6064884000225,,,,,,,,,,,,,,,,268.5908658999833,268.6064884000225,269.30583590001334,269.30583590001334,269.80548400001135,269.7896502999938,269.79022460000124,269.80548400001135,270.08848869998474,270.27180899999803,270.27180899999803,270.55608499998925,space,1,0.27863600000273436,None,270.5600511000375,271.071036999987,272.0702950999839,272.0543613000191,,,,,,,,,,,,,,,,,006,001,2025-04-28_22h35.22.477,Cued GoNogo Task,2024.2.4,60.223114597228246,2025-04-28 22h35.34.320385 +0200,
block/CondBlock1.xlsx,You are about to start a block of type 1 trials.,70,70,0,Go,Go,0.25,0.2,0.05,space,green,vertical,space,5.773665399989113,None,space,1,0.3030778000247665,None,,,,0,0,0,0,0,70,70,70,272.0702950999839,,,,,,,,,,,,,,,,272.05466979998164,272.0702950999839,272.76990030001616,272.76990030001616,273.26950960000977,273.2534367000335,273.2541223000153,273.26950960000977,273.5190331999911,273.7189285000204,273.7189285000204,274.03619050001726,space,1,0.3030778000247665,None,274.03999840002507,274.5515529999975,275.55081809998956,275.53475039999466,,,,,,,,,,,,,,,,,006,001,2025-04-28_22h35.22.477,Cued GoNogo Task,2024.2.4,60.223114597228246,2025-04-28 22h35.34.320385 +0200,
block/CondBlock1.xlsx,You are about to start a block of type 1 trials.,71,71,0,Go,Go,0.28,0.05,0.2,space,green,horizontal,space,5.773665399989113,None,space,1,0.3421871999744326,None,,,,0,0,0,0,0,71,71,71,275.55081809998956,,,,,,,,,,,,,,,,275.53498719999334,275.55081809998956,276.2501803000341,276.2501803000341,276.7497786000022,276.734035600035,276.7349694999866,276.7497786000022,277.03292979998514,277.2160643999814,277.2160643999814,277.56750519998604,space,1,0.3421871999744326,None,277.5714189999853,278.08199849998346,279.0812583999941,279.0651762000052,,,,,,,,,,,,,,,,,006,001,2025-04-28_22h35.22.477,Cued GoNogo Task,2024.2.4,60.223114597228246,2025-04-28 22h35.34.320385 +0200,
block/CondBlock1.xlsx,You are about to start a block of type 1 trials.,72,72,0,Go,Go,0.14,0.05,0.2,space,blue,horizontal,space,5.773665399989113,None,space,1,0.31342019996372983,None,,,,0,0,0,0,0,72,72,72,279.0812583999941,,,,,,,,,,,,,,,,279.06545320001896,279.0812583999941,279.7805832999875,279.7805832999875,280.28019710001536,280.2643127000192,280.26497419999214,280.28019710001536,280.4301092000096,280.61323640000774,280.61323640000774,280.9307551999809,space,1,0.31342019996372983,None,280.93454940000083,281.4458890000242,282.4449892999837,282.4295680000214,,,,,,,,,,,,,,,,,006,001,2025-04-28_22h35.22.477,Cued GoNogo Task,2024.2.4,60.223114597228246,2025-04-28 22h35.34.320385 +0200,
block/CondBlock1.xlsx,You are about to start a block of type 1 trials.,73,73,0,Go,Go,0.11,0.05,0.2,space,blue,horizontal,space,5.773665399989113,None,space,1,0.24612979998346418,None,,,,0,0,0,0,0,73,73,73,282.4449892999837,,,,,,,,,,,,,,,,282.42973030003486,282.4449892999837,283.14457410003524,283.14457410003524,283.6439830000163,283.6280537000275,283.6286288999836,283.6439830000163,283.7606543999864,283.94396469998173,283.94396469998173,284.1946572000161,space,1,0.24612979998346418,None,284.197759600007,284.709841999982,285.7090634999913,285.6937758999993,,,,,,,,,,,,,,,,,006,001,2025-04-28_22h35.22.477,Cued GoNogo Task,2024.2.4,60.223114597228246,2025-04-28 22h35.34.320385 +0200,
block/CondBlock1.xlsx,You are about to start a block of type 1 trials.,74,74,0,Go,Go,0.22,0.2,0.05,space,blue,vertical,space,5.773665399989113,None,space,1,0.2983568999916315,None,,,,0,0,0,0,0,74,74,74,285.7090634999913,,,,,,,,,,,,,,,,285.6942471000366,285.7090634999913,286.40847590001067,286.40847590001067,286.90789000003133,286.8920675999834,286.89260409999406,286.90789000003133,287.14129110000795,287.3244811000186,287.3244811000186,287.6258458000375,space,1,0.2983568999916315,None,287.630673800013,288.1403405999881,289.1394118000171,289.1236838999903,,,,,,,,,,,,,,,,,006,001,2025-04-28_22h35.22.477,Cued GoNogo Task,2024.2.4,60.223114597228246,2025-04-28 22h35.34.320385 +0200,
block/CondBlock1.xlsx,You are about to start a block of type 1 trials.,75,75,0,Go,Go,0.26,0.05,0.2,space,blue,horizontal,space,5.773665399989113,None,space,1,0.33797079999931157,None,,,,0,0,0,0,0,75,75,75,289.1394118000171,,,,,,,,,,,,,,,,289.1239660999854,289.1394118000171,289.83893159998115,289.83893159998115,290.3383926000097,290.322582599998,290.32326780003496,290.3383926000097,290.6051448000362,290.7882452000049,290.7882452000049,291.13902619999135,space,1,0.33797079999931157,None,291.14321080001537,291.6541659000213,292.65350120002404,292.6372824999853,,,,,,,,,,,,,,,,,006,001,2025-04-28_22h35.22.477,Cued GoNogo Task,2024.2.4,60.223114597228246,2025-04-28 22h35.34.320385 +0200,
block/CondBlock1.xlsx,You are about to start a block of type 1 trials.,76,76,0,Go,Go,0.14,0.2,0.05,space,green,vertical,space,5.773665399989113,None,space,1,0.3655799999833107,None,,,,0,0,0,0,0,76,76,76,292.65350120002404,,,,,,,,,,,,,,,,292.6375124999904,292.65350120002404,293.35286320000887,293.35286320000887,293.8522745000082,293.836460200022,293.837189199985,293.8522745000082,294.0021112000104,294.1854259999818,294.1854259999818,294.5535341000068,space,1,0.3655799999833107,None,294.55696289998014,295.06797810003627,296.0670600000303,296.0511484000017,,,,,,,,,,,,,,,,,006,001,2025-04-28_22h35.22.477,Cued GoNogo Task,2024.2.4,60.223114597228246,2025-04-28 22h35.34.320385 +0200,
block/CondBlock1.xlsx,You are about to start a block of type 1 trials.,77,77,0,Go,Go,0.18,0.05,0.2,space,green,horizontal,space,5.773665399989113,None,space,1,0.2612100000260398,None,,,,0,0,0,0,0,77,77,77,296.0670600000303,,,,,,,,,,,,,,,,296.0514164000051,296.0670600000303,296.76674390002154,296.76674390002154,297.2663482000353,297.2502491000341,297.2508788999985,297.2663482000353,297.44949179998366,297.64909890003037,297.64909890003037,297.9169289999991,space,1,0.2612100000260398,None,297.9207632000325,298.4319548000349,299.4310543999891,299.4156976999948,,,,,,,,,,,,,,,,,006,001,2025-04-28_22h35.22.477,Cued GoNogo Task,2024.2.4,60.223114597228246,2025-04-28 22h35.34.320385 +0200,
block/CondBlock1.xlsx,You are about to start a block of type 1 trials.,78,78,0,NoGo,NoGo,0.27,0.05,0.2,none,blue,horizontal,space,5.773665399989113,None,space,0,0.2224778999807313,None,,,,0,0,0,0,0,78,78,78,299.4310543999891,,,,,,,,,,,,,,,,299.4159823000082,299.4310543999891,300.1306591000175,300.1306591000175,300.6301124999882,300.61438610003097,300.61513280001236,300.6301124999882,300.9132938000257,301.0962956000003,301.0962956000003,301.3308254000149,space,0,0.2224778999807313,None,301.3355121000204,301.8457042000373,302.84490100003313,302.82894580002176,,,,,,,,,,,,,,,,,006,001,2025-04-28_22h35.22.477,Cued GoNogo Task,2024.2.4,60.223114597228246,2025-04-28 22h35.34.320385 +0200,
block/CondBlock1.xlsx,You are about to start a block of type 1 trials.,79,79,0,NoGo,NoGo,0.26,0.2,0.05,none,blue,vertical,space,5.773665399989113,None,None,1,,,,,,0,0,0,0,0,79,79,79,302.84490100003313,,,,,,,,,,,,,,,,302.8292222000309,302.84490100003313,303.5444836000097,303.5444836000097,304.0439220999833,304.0278188000084,304.02843820001,304.0439220999833,304.31035630003316,304.49354210001184,304.49354210001184,304.9771971000009,None,1,,,304.9795108999824,305.49263210000936,306.4920497999992,306.47624340001494,304.99314410000807,304.99314410000807,,,,,,,,,,,,,,,006,001,2025-04-28_22h35.22.477,Cued GoNogo Task,2024.2.4,60.223114597228246,2025-04-28 22h35.34.320385 +0200,
block/CondBlock1.xlsx,You are about to start a block of type 1 trials.,80,80,0,Go,Go,0.22,0.2,0.05,space,green,vertical,space,5.773665399989113,None,None,0,,,,,,0,0,0,0,0,80,80,80,306.4920497999992,,,,,,,,,,,,,,,,306.47678460000316,306.4920497999992,307.1913010000135,307.1913010000135,307.69105140003376,307.67513719998533,307.6758239000337,307.69105140003376,307.92398269998375,308.1071410999866,308.1071410999866,308.59136359998956,None,0,,,308.597030600009,309.10672989999875,,310.10567120002815,308.60684219998075,308.60684219998075,,,,,,,,,,,,,,,006,001,2025-04-28_22h35.22.477,Cued GoNogo Task,2024.2.4,60.223114597228246,2025-04-28 22h35.34.320385 +0200,
block/CondBlock1.xlsx,You are about to start a block of type 1 trials.,81,81,0,Go,Go,0.5,0.2,0.05,space,green,vertical,space,5.773665399989113,None,space,1,0.3392695999937132,None,,,,0,0,0,0,0,81,81,81,310.1221828000271,,,,,,,,,,,,,,,,310.1059150000219,310.1221828000271,310.8047744000214,310.8215794999851,311.3046401999891,311.2890571000171,311.2895756000071,311.3046401999891,311.8043361000018,312.0041551000322,312.0041551000322,312.3552504000254,space,1,0.3392695999937132,None,312.35986050002975,312.87014930002624,313.8692144000088,313.85368910001125,,,,,,,,,,,,,,,,,006,001,2025-04-28_22h35.22.477,Cued GoNogo Task,2024.2.4,60.223114597228246,2025-04-28 22h35.34.320385 +0200,
block/CondBlock1.xlsx,You are about to start a block of type 1 trials.,82,82,0,Go,Go,0.43,0.05,0.2,space,green,horizontal,space,5.773665399989113,None,space,1,0.27415599999949336,None,,,,0,0,0,0,0,82,82,82,313.8692144000088,,,,,,,,,,,,,,,,313.85405780002475,313.8692144000088,314.56853400002,314.56853400002,315.0682090999908,315.0521941999905,315.0528062999947,315.0682090999908,315.50137469999027,315.70095440000296,315.70095440000296,315.98563539999304,space,1,0.27415599999949336,None,315.98895410000114,316.50042190001113,317.4994367000181,317.4833238000283,,,,,,,,,,,,,,,,,006,001,2025-04-28_22h35.22.477,Cued GoNogo Task,2024.2.4,60.223114597228246,2025-04-28 22h35.34.320385 +0200,
block/CondBlock1.xlsx,You are about to start a block of type 1 trials.,83,83,0,Go,Go,0.25,0.2,0.05,space,green,vertical,space,5.773665399989113,None,space,1,0.2904448000481352,None,,,,0,0,0,0,0,83,83,83,317.4994367000181,,,,,,,,,,,,,,,,317.4835292000207,317.4994367000181,318.19896090001566,318.19896090001566,318.6987404000247,318.6827620000113,318.6834041000111,318.6987404000247,318.9485361999832,319.14837010001065,319.14837010001065,319.44890140002826,space,1,0.2904448000481352,None,319.4527337999898,319.96425010001985,320.96337820001645,320.94734880002216,,,,,,,,,,,,,,,,,006,001,2025-04-28_22h35.22.477,Cued GoNogo Task,2024.2.4,60.223114597228246,2025-04-28 22h35.34.320385 +0200,
block/CondBlock1.xlsx,You are about to start a block of type 1 trials.,84,84,0,NoGo,NoGo,0.14,0.2,0.05,none,green,vertical,space,5.773665399989113,None,None,1,,,,,,0,0,0,0,0,84,84,84,320.96337820001645,,,,,,,,,,,,,,,,320.9476040999871,320.96337820001645,321.6627497000154,321.6627497000154,322.16227560001425,322.146619200008,322.1473372000037,322.16227560001425,322.31217799999285,322.4955543000251,322.4955543000251,322.97953880002024,None,1,,,322.9832760000136,323.4946752000251,324.4938930000062,324.47773280000547,322.9950370999868,322.9950370999868,,,,,,,,,,,,,,,006,001,2025-04-28_22h35.22.477,Cued GoNogo Task,2024.2.4,60.223114597228246,2025-04-28 22h35.34.320385 +0200,
block/CondBlock1.xlsx,You are about to start a block of type 1 trials.,85,85,0,Go,Go,0.2,0.05,0.2,space,blue,horizontal,space,5.773665399989113,None,space,1,0.24952680000569671,None,,,,0,0,0,0,0,85,85,85,324.4938930000062,,,,,,,,,,,,,,,,324.47797240002546,324.4938930000062,325.1933059000294,325.1933059000294,325.69286579999607,325.67696120002074,325.67759770003613,325.69286579999607,325.89266990002943,326.0925323999836,326.0925323999836,326.3442198000266,space,1,0.24952680000569671,None,326.3482895999914,326.85861160000786,327.8578808000311,327.84226300002774,,,,,,,,,,,,,,,,,006,001,2025-04-28_22h35.22.477,Cued GoNogo Task,2024.2.4,60.223114597228246,2025-04-28 22h35.34.320385 +0200,
block/CondBlock1.xlsx,You are about to start a block of type 1 trials.,86,86,0,Go,Go,0.16,0.2,0.05,space,blue,vertical,space,5.773665399989113,None,space,1,0.3523971000104211,None,,,,0,0,0,0,0,86,86,86,327.8578808000311,,,,,,,,,,,,,,,,327.84264769998845,327.8578808000311,328.5573364000302,328.5573364000302,329.0565757000004,329.04081189999124,329.04146929999115,329.0565757000004,329.2233845000155,329.4063845000346,329.4063845000346,329.77434420003556,space,1,0.3523971000104211,None,329.7783546000137,330.289050100022,331.28827740001725,331.27225760003785,,,,,,,,,,,,,,,,,006,001,2025-04-28_22h35.22.477,Cued GoNogo Task,2024.2.4,60.223114597228246,2025-04-28 22h35.34.320385 +0200,
block/CondBlock1.xlsx,You are about to start a block of type 1 trials.,87,87,0,Go,Go,0.41,0.2,0.05,space,green,vertical,space,5.773665399989113,None,space,1,0.30360270000528544,None,,,,0,0,0,0,0,87,87,87,331.28827740001725,,,,,,,,,,,,,,,,331.27252510003746,331.28827740001725,331.98772510001436,331.98772510001436,332.4870443000109,332.4714764999808,332.47225019999314,332.4870443000109,332.90353529999265,333.0867534999852,333.0867534999852,333.4043602999882,space,1,0.30360270000528544,None,333.4087417999981,333.9193128999905,334.91856710001593,334.90297589998227,,,,,,,,,,,,,,,,,006,001,2025-04-28_22h35.22.477,Cued GoNogo Task,2024.2.4,60.223114597228246,2025-04-28 22h35.34.320385 +0200,
block/CondBlock1.xlsx,You are about to start a block of type 1 trials.,88,88,0,NoGo,NoGo,0.15,0.2,0.05,none,green,vertical,space,5.773665399989113,None,None,1,,,,,,0,0,0,0,0,88,88,88,334.91856710001593,,,,,,,,,,,,,,,,334.90322229999583,334.91856710001593,335.61784840002656,335.61784840002656,336.11753430002136,336.1016950000194,336.10227700002724,336.11753430002136,336.2675447000074,336.4672683000099,336.4672683000099,336.9511424000375,None,1,,,336.95412670000223,337.4663583000074,338.4656044000294,338.44969620002666,336.9670103000244,336.9670103000244,,,,,,,,,,,,,,,006,001,2025-04-28_22h35.22.477,Cued GoNogo Task,2024.2.4,60.223114597228246,2025-04-28 22h35.34.320385 +0200,
block/CondBlock1.xlsx,You are about to start a block of type 1 trials.,89,89,0,Go,Go,0.24,0.05,0.2,space,blue,horizontal,space,5.773665399989113,None,space,1,0.22091989999171346,None,,,,0,0,0,0,0,89,89,89,338.4656044000294,,,,,,,,,,,,,,,,338.45001139998203,338.4656044000294,339.1649869999965,339.1649869999965,339.6647306000232,339.64864309999393,339.6492579000187,339.6647306000232,339.9144410000299,340.09767009998905,340.09767009998905,340.332126000023,space,1,0.22091989999171346,None,340.33730190002825,340.8470483000274,341.8462045000051,341.83024899999145,,,,,,,,,,,,,,,,,006,001,2025-04-28_22h35.22.477,Cued GoNogo Task,2024.2.4,60.223114597228246,2025-04-28 22h35.34.320385 +0200,
block/CondBlock1.xlsx,You are about to start a block of type 1 trials.,90,90,0,Go,Go,0.25,0.2,0.05,space,blue,vertical,space,5.773665399989113,None,space,1,0.2962118000141345,None,,,,0,0,0,0,0,90,90,90,341.8462045000051,,,,,,,,,,,,,,,,341.8305834000348,341.8462045000051,342.5454594999901,342.5454594999901,343.04512800002703,343.0292681999854,343.0299219000153,343.04512800002703,343.29487029998563,343.4948444000329,343.4948444000329,343.7960478999885,space,1,0.2962118000141345,None,343.8003714000224,344.31074159999844,345.3099872000166,345.2943025000277,,,,,,,,,,,,,,,,,006,001,2025-04-28_22h35.22.477,Cued GoNogo Task,2024.2.4,60.223114597228246,2025-04-28 22h35.34.320385 +0200,
block/CondBlock1.xlsx,You are about to start a block of type 1 trials.,91,91,0,Go,Go,0.26,0.05,0.2,space,green,horizontal,space,5.773665399989113,None,space,1,0.3917123000137508,None,,,,0,0,0,0,0,91,91,91,345.3099872000166,,,,,,,,,,,,,,,,345.2946018000366,345.3099872000166,346.0092906000209,346.0092906000209,346.50897199998144,346.49319950002246,346.493780800025,346.50897199998144,346.7754900000291,346.95873200002825,346.95873200002825,347.35959950002143,space,1,0.3917123000137508,None,347.3649211000302,347.8746949000051,348.8736827999819,348.858033800032,,,,,,,,,,,,,,,,,006,001,2025-04-28_22h35.22.477,Cued GoNogo Task,2024.2.4,60.223114597228246,2025-04-28 22h35.34.320385 +0200,
block/CondBlock1.xlsx,You are about to start a block of type 1 trials.,92,92,0,NoGo,NoGo,0.44,0.2,0.05,none,blue,vertical,space,5.773665399989113,None,None,1,,,,,,0,0,0,0,0,92,92,92,348.8736827999819,,,,,,,,,,,,,,,,348.8583660000004,348.8736827999819,349.5732299000374,349.5732299000374,350.0728194999974,350.0568481000373,350.05737739999313,350.0728194999974,350.52225239999825,350.7055543999886,350.7055543999886,351.189497400017,None,1,,,351.1924034000258,351.7047200999805,352.70404310000595,352.6879573999904,351.20533650001744,351.20533650001744,,,,,,,,,,,,,,,006,001,2025-04-28_22h35.22.477,Cued GoNogo Task,2024.2.4,60.223114597228246,2025-04-28 22h35.34.320385 +0200,
block/CondBlock1.xlsx,You are about to start a block of type 1 trials.,93,93,0,Go,Go,0.13,0.2,0.05,space,green,vertical,space,5.773665399989113,None,space,1,0.3483081000158563,None,,,,0,0,0,0,0,93,93,93,352.70404310000595,,,,,,,,,,,,,,,,352.6882441000198,352.70404310000595,353.40330350003205,353.40330350003205,353.90290250000544,353.88720500003546,353.8879259999958,353.90290250000544,354.0360507000005,354.2194291999913,354.2194291999913,354.5712808999815,space,1,0.3483081000158563,None,354.57528380001895,355.0853908000281,356.0845585000352,356.0684559000074,,,,,,,,,,,,,,,,,006,001,2025-04-28_22h35.22.477,Cued GoNogo Task,2024.2.4,60.223114597228246,2025-04-28 22h35.34.320385 +0200,
block/CondBlock1.xlsx,You are about to start a block of type 1 trials.,94,94,0,Go,Go,0.44,0.05,0.2,space,blue,horizontal,space,5.773665399989113,None,space,1,0.35394160001305863,None,,,,0,0,0,0,0,94,94,94,356.0845585000352,,,,,,,,,,,,,,,,356.068679500022,356.0845585000352,356.7838695999817,356.7838695999817,357.2834143000073,357.26767810003366,357.26836380001623,357.2834143000073,357.7331747999997,357.9162248999928,357.9162248999928,358.28394759999355,space,1,0.35394160001305863,None,358.288660500024,358.7989031000179,359.7980695000151,359.7820003000088,,,,,,,,,,,,,,,,,006,001,2025-04-28_22h35.22.477,Cued GoNogo Task,2024.2.4,60.223114597228246,2025-04-28 22h35.34.320385 +0200,
block/CondBlock1.xlsx,You are about to start a block of type 1 trials.,95,95,0,Go,Go,0.15,0.2,0.05,space,green,vertical,space,5.773665399989113,None,space,1,0.3471197999897413,None,,,,0,0,0,0,0,95,95,95,359.7980695000151,,,,,,,,,,,,,,,,359.78234450001037,359.7980695000151,360.4974132000352,360.4974132000352,360.997175800032,360.9813342000125,360.98198809998576,360.997175800032,361.146997999982,361.34685949998675,361.34685949998675,361.6980881000054,space,1,0.3471197999897413,None,361.702431600017,362.2129965000204,363.21185020002304,363.1963490000344,,,,,,,,,,,,,,,,,006,001,2025-04-28_22h35.22.477,Cued GoNogo Task,2024.2.4,60.223114597228246,2025-04-28 22h35.34.320385 +0200,
block/CondBlock1.xlsx,You are about to start a block of type 1 trials.,96,96,0,Go,Go,0.49,0.2,0.05,space,green,vertical,space,5.773665399989113,None,space,1,0.3773129999754019,None,,,,0,0,0,0,0,96,96,96,363.21185020002304,,,,,,,,,,,,,,,,363.19671210000524,363.21185020002304,363.91148290003184,363.91148290003184,364.4108418999822,364.3953624999849,364.39616010000464,364.4108418999822,364.9105060999864,365.09357010002714,365.09357010002714,365.47795670002233,space,1,0.3773129999754019,None,365.481941999984,365.9929798000376,366.9922474999912,366.97634009999456,,,,,,,,,,,,,,,,,006,001,2025-04-28_22h35.22.477,Cued GoNogo Task,2024.2.4,60.223114597228246,2025-04-28 22h35.34.320385 +0200,
block/CondBlock1.xlsx,You are about to start a block of type 1 trials.,97,97,0,Go,Go,0.11,0.2,0.05,space,blue,vertical,space,5.773665399989113,None,space,1,0.3474055000115186,None,,,,0,0,0,0,0,97,97,97,366.9922474999912,,,,,,,,,,,,,,,,366.97668680001516,366.9922474999912,367.69173830002546,367.69173830002546,368.1911856000079,368.1754767000093,368.1761500000139,368.1911856000079,368.3078478000243,368.491110700008,368.491110700008,368.8417094000033,space,1,0.3474055000115186,None,368.8453171000001,369.3570269999909,370.3559999000281,370.340036300011,,,,,,,,,,,,,,,,,006,001,2025-04-28_22h35.22.477,Cued GoNogo Task,2024.2.4,60.223114597228246,2025-04-28 22h35.34.320385 +0200,
block/CondBlock1.xlsx,You are about to start a block of type 1 trials.,98,98,0,Go,Go,0.26,0.05,0.2,space,green,horizontal,space,5.773665399989113,None,space,1,0.24207450001267716,None,,,,0,0,0,0,0,98,98,98,370.3559999000281,,,,,,,,,,,,,,,,370.3403043000144,370.3559999000281,371.05558749998454,371.05558749998454,371.55507030000445,371.5392698000069,371.5398995000287,371.55507030000445,371.8215515000047,372.00475339998957,372.00475339998957,372.2555147000239,space,1,0.24207450001267716,None,372.25968060002197,372.7707684999914,373.7700256999815,373.75413379998645,,,,,,,,,,,,,,,,,006,001,2025-04-28_22h35.22.477,Cued GoNogo Task,2024.2.4,60.223114597228246,2025-04-28 22h35.34.320385 +0200,
block/CondBlock1.xlsx,You are about to start a block of type 1 trials.,99,99,0,Go,Go,0.28,0.05,0.2,space,green,horizontal,space,5.773665399989113,None,space,1,0.27476679999381304,None,,,,0,0,0,0,0,99,99,99,373.7700256999815,,,,,,,,,,,,,,,,373.7544682000298,373.7700256999815,374.46940750000067,374.46940750000067,374.96910430002026,374.9529188000015,374.95355819998076,374.96910430002026,375.252184699988,375.4351894999854,375.4351894999854,375.71959120000247,space,1,0.27476679999381304,None,375.72317070001736,376.23462020000443,377.2341954000294,377.21791419998044,,,,,,,,,,,,,,,,,006,001,2025-04-28_22h35.22.477,Cued GoNogo Task,2024.2.4,60.223114597228246,2025-04-28 22h35.34.320385 +0200,
block/CondBlock1.xlsx,You are about to start a block of type 1 trials.,0,0,0,,,,,,,,,space,5.773665399989113,None,,,,,space,0.8365739999571815,None,0,0,0,0,,,,,,,,,,,,,,,,,,,,,,,,,,,,,,,,,,,,,,,,,,,377.2320026999805,377.2341954000294,377.2341954000294,378.0841911000316,space,0.8365739999571815,None,,,,,,,,006,001,2025-04-28_22h35.22.477,Cued GoNogo Task,2024.2.4,60.223114597228246,2025-04-28 22h35.34.320385 +0200,
block/CondBlock2.xlsx,You are about to start a block of type 2 trials.,0,0,0,Go,Go,0.18,0.05,0.2,space,green,horizontal,space,271.64316320000216,None,space,1,0.2905621000099927,None,,,,0,1,1,1,0,0,0,0,649.7663737999974,,,,,,,,,378.08860590000404,378.09967880003387,378.09967880003387,649.7452158000087,space,271.64316320000216,None,649.7639503999962,649.7663737999974,650.4591120000114,650.4755062999902,650.9586460000137,650.9427060000016,650.9433216000325,650.9586460000137,651.1418491000077,651.3249528000015,651.3249528000015,651.6258966000169,space,1,0.2905621000099927,None,651.6304941999842,652.140816900006,653.1401400000323,653.1242536000209,,,,,,,,,,,,,,,,,006,001,2025-04-28_22h35.22.477,Cued GoNogo Task,2024.2.4,60.223114597228246,2025-04-28 22h35.34.320385 +0200,
block/CondBlock2.xlsx,You are about to start a block of type 2 trials.,1,1,0,Go,Go,0.2,0.2,0.05,space,green,vertical,space,271.64316320000216,None,space,1,0.32409010000992566,None,,,,0,1,1,1,0,1,1,1,653.1401400000323,,,,,,,,,,,,,,,,653.1245493000024,653.1401400000323,653.8395298999967,653.8395298999967,654.3392809000215,654.3230562999961,654.3236037000315,654.3392809000215,654.5390695999959,654.738749000011,654.738749000011,655.0728051000042,space,1,0.32409010000992566,None,655.076469600026,655.5882450999925,656.5874470000272,656.5717359000118,,,,,,,,,,,,,,,,,006,001,2025-04-28_22h35.22.477,Cued GoNogo Task,2024.2.4,60.223114597228246,2025-04-28 22h35.34.320385 +0200,
block/CondBlock2.xlsx,You are about to start a block of type 2 trials.,2,2,0,Go,Go,0.22,0.05,0.2,space,blue,horizontal,space,271.64316320000216,None,space,1,0.2921257000416517,None,,,,0,1,1,1,0,2,2,2,656.5874470000272,,,,,,,,,,,,,,,,656.5720833999803,656.5874470000272,657.286838,657.286838,657.7862515000161,657.7706461999915,657.7712795999832,657.7862515000161,658.0195096000098,658.2027625000337,658.2027625000337,658.5038837000029,space,1,0.2921257000416517,None,658.5090527000139,659.0187838000129,660.0177041999996,660.0021774999914,,,,,,,,,,,,,,,,,006,001,2025-04-28_22h35.22.477,Cued GoNogo Task,2024.2.4,60.223114597228246,2025-04-28 22h35.34.320385 +0200,
block/CondBlock2.xlsx,You are about to start a block of type 2 trials.,3,3,0,Go,Go,0.14,0.05,0.2,space,green,horizontal,space,271.64316320000216,None,space,1,0.2739926000358537,None,,,,0,1,1,1,0,3,3,3,660.0177041999996,,,,,,,,,,,,,,,,660.0024845000007,660.0177041999996,660.7173819000018,660.7173819000018,661.2169887000346,661.2009224999929,661.2016903000185,661.2169887000346,661.3668482000357,661.5499970000237,661.5499970000237,661.8339296000195,space,1,0.2739926000358537,None,661.837418399984,662.3493681999971,663.3483955999836,663.3323653999832,,,,,,,,,,,,,,,,,006,001,2025-04-28_22h35.22.477,Cued GoNogo Task,2024.2.4,60.223114597228246,2025-04-28 22h35.34.320385 +0200,
block/CondBlock2.xlsx,You are about to start a block of type 2 trials.,4,4,0,Go,Go,0.26,0.05,0.2,space,blue,horizontal,space,271.64316320000216,None,space,1,0.2816958000184968,None,,,,0,1,1,1,0,4,4,4,663.3483955999836,,,,,,,,,,,,,,,,663.3325959999929,663.3483955999836,664.048016100016,664.048016100016,664.5473648000043,664.531787600019,664.5325930999825,664.5473648000043,664.8138593999902,664.9970580000081,664.9970580000081,665.2814451000304,space,1,0.2816958000184968,None,665.2856199999806,665.7964754999848,666.7957226000144,666.7795347000356,,,,,,,,,,,,,,,,,006,001,2025-04-28_22h35.22.477,Cued GoNogo Task,2024.2.4,60.223114597228246,2025-04-28 22h35.34.320385 +0200,
block/CondBlock2.xlsx,You are about to start a block of type 2 trials.,5,5,0,Go,Go,0.1,0.05,0.2,space,blue,horizontal,space,271.64316320000216,None,space,1,0.29576560005079955,None,,,,0,1,1,1,0,5,5,5,666.7957226000144,,,,,,,,,,,,,,,,666.7798335999832,666.7957226000144,667.4950792000163,667.4950792000163,667.9945231000311,667.9788247999968,667.9796039999928,667.9945231000311,668.0945331000257,668.2944523000042,668.2944523000042,668.5953841999872,space,1,0.29576560005079955,None,668.5997037999914,669.1102938000113,670.1093971999944,670.0937226000242,,,,,,,,,,,,,,,,,006,001,2025-04-28_22h35.22.477,Cued GoNogo Task,2024.2.4,60.223114597228246,2025-04-28 22h35.34.320385 +0200,
block/CondBlock2.xlsx,You are about to start a block of type 2 trials.,6,6,0,NoGo,NoGo,0.3,0.2,0.05,none,green,vertical,space,271.64316320000216,None,None,1,,,,,,0,1,1,1,0,6,6,6,670.1093971999944,,,,,,,,,,,,,,,,670.0940592000261,670.1093971999944,670.8088946000207,670.8088946000207,671.3085206000251,671.2924346000073,671.2932565000374,671.3085206000251,671.6081120999879,671.8082003000309,671.8082003000309,672.2917245000135,None,1,,,672.2944625000237,672.8071481999941,673.8063099000137,673.7903663000325,672.307891000004,672.307891000004,,,,,,,,,,,,,,,006,001,2025-04-28_22h35.22.477,Cued GoNogo Task,2024.2.4,60.223114597228246,2025-04-28 22h35.34.320385 +0200,
block/CondBlock2.xlsx,You are about to start a block of type 2 trials.,7,7,0,NoGo,NoGo,0.14,0.05,0.2,none,blue,horizontal,space,271.64316320000216,None,None,1,,,,,,0,1,1,1,0,7,7,7,673.8063099000137,,,,,,,,,,,,,,,,673.790662400017,673.8063099000137,674.5057021999964,674.5057021999964,675.0054638999864,674.9895645999932,674.9902061999892,675.0054638999864,675.1552628999925,675.3386185999843,675.3386185999843,675.8220465999912,None,1,,,675.8224517999915,676.3211037000292,677.3203721999889,677.3043454000144,675.8381377999904,675.8381377999904,,,,,,,,,,,,,,,006,001,2025-04-28_22h35.22.477,Cued GoNogo Task,2024.2.4,60.223114597228246,2025-04-28 22h35.34.320385 +0200,
block/CondBlock2.xlsx,You are about to start a block of type 2 trials.,8,8,0,Go,Go,0.13,0.2,0.05,space,blue,vertical,space,271.64316320000216,None,space,1,0.3696821000194177,None,,,,0,1,1,1,0,8,8,8,677.3203721999889,,,,,,,,,,,,,,,,677.3046505000093,677.3368703000015,678.0363083999837,678.0363083999837,678.535986300034,678.5200548000284,678.5208573000273,678.535986300034,678.6691545000067,678.8523668000125,678.8523668000125,679.2361272000126,space,1,0.3696821000194177,None,679.2387145999819,679.7517588000046,680.7507089999854,680.7349589000223,,,,,,,,,,,,,,,,,006,001,2025-04-28_22h35.22.477,Cued GoNogo Task,2024.2.4,60.223114597228246,2025-04-28 22h35.34.320385 +0200,
block/CondBlock2.xlsx,You are about to start a block of type 2 trials.,9,9,0,Go,Go,0.43,0.2,0.05,space,green,vertical,space,271.64316320000216,None,space,1,0.34418100002221763,None,,,,0,1,1,1,0,9,9,9,680.7507089999854,,,,,,,,,,,,,,,,680.7352633000119,680.7507089999854,681.4502334999852,681.4502334999852,681.9496594000375,681.934036599996,681.9347863000003,681.9496594000375,682.3826417999808,682.5658672000282,682.5658672000282,682.9168162000133,space,1,0.34418100002221763,None,682.9204450999969,683.4318386000232,684.4310069000348,684.4150890000165,,,,,,,,,,,,,,,,,006,001,2025-04-28_22h35.22.477,Cued GoNogo Task,2024.2.4,60.223114597228246,2025-04-28 22h35.34.320385 +0200,
block/CondBlock2.xlsx,You are about to start a block of type 2 trials.,10,10,0,Go,Go,0.14,0.2,0.05,space,green,vertical,space,271.64316320000216,None,space,1,0.3644530000165105,None,,,,0,1,1,1,0,10,10,10,684.4310069000348,,,,,,,,,,,,,,,,684.4153208000353,684.4310069000348,685.1305638999911,685.1305638999911,685.6302268999862,685.6138590000337,685.6142654999858,685.6302268999862,685.7799230000237,685.9631870000158,685.9631870000158,686.3314670000109,space,1,0.3644530000165105,None,686.3362962999963,686.8459305000142,,687.8451468999847,,,,,,,,,,,,,,,,,006,001,2025-04-28_22h35.22.477,Cued GoNogo Task,2024.2.4,60.223114597228246,2025-04-28 22h35.34.320385 +0200,
block/CondBlock2.xlsx,You are about to start a block of type 2 trials.,11,11,0,Go,Go,0.27,0.2,0.05,space,green,vertical,space,271.64316320000216,None,space,1,0.344204000022728,None,,,,0,1,1,1,0,11,11,11,687.8616276999819,,,,,,,,,,,,,,,,687.8454769999953,687.8616276999819,688.5442478000186,688.5609385999851,689.0439807000221,689.0280206000316,689.0287373000174,689.0439807000221,689.327042400022,689.5102321000304,689.5102321000304,689.861834499985,space,1,0.344204000022728,None,689.8665494000306,690.3761281000334,691.375356100034,691.3594137000036,,,,,,,,,,,,,,,,,006,001,2025-04-28_22h35.22.477,Cued GoNogo Task,2024.2.4,60.223114597228246,2025-04-28 22h35.34.320385 +0200,
block/CondBlock2.xlsx,You are about to start a block of type 2 trials.,12,12,0,Go,Go,0.3,0.05,0.2,space,green,horizontal,space,271.64316320000216,None,space,1,0.4523575999774039,None,,,,0,1,1,1,0,12,12,12,691.375356100034,,,,,,,,,,,,,,,,691.3596716999891,691.375356100034,692.0749073000043,692.0749073000043,692.5744377000374,692.5583759000292,692.5589973999886,692.5744377000374,692.874342199997,693.0739572999883,693.0739572999883,693.5414999999921,space,1,0.4523575999774039,None,693.5457947999821,694.0565403000219,695.0556728999945,695.0399260999984,,,,,,,,,,,,,,,,,006,001,2025-04-28_22h35.22.477,Cued GoNogo Task,2024.2.4,60.223114597228246,2025-04-28 22h35.34.320385 +0200,
block/CondBlock2.xlsx,You are about to start a block of type 2 trials.,13,13,0,Go,Go,0.18,0.2,0.05,space,blue,vertical,space,271.64316320000216,None,space,1,0.2816377999843098,None,,,,0,1,1,1,0,13,13,13,695.0556728999945,,,,,,,,,,,,,,,,695.0403273000265,695.0556728999945,695.7550198999816,695.7550198999816,696.2547701000003,696.2389871000196,696.2397067000275,696.2547701000003,696.437891300011,696.6211552000022,696.6211552000022,696.9064009999856,space,1,0.2816377999843098,None,696.9110275999992,697.4204701000126,698.4194768000161,698.4040061000269,,,,,,,,,,,,,,,,,006,001,2025-04-28_22h35.22.477,Cued GoNogo Task,2024.2.4,60.223114597228246,2025-04-28 22h35.34.320385 +0200,
block/CondBlock2.xlsx,You are about to start a block of type 2 trials.,14,14,0,Go,Go,0.13,0.2,0.05,space,green,vertical,space,271.64316320000216,None,space,1,0.29449749999912456,None,,,,0,1,1,1,0,14,14,14,698.4194768000161,,,,,,,,,,,,,,,,698.4043902999838,698.4194768000161,699.1189376999973,699.1189376999973,699.6186572000152,699.6025984000298,699.6032604000065,699.6186572000152,699.7518191999989,699.9517234000377,699.9517234000377,700.2525892999838,space,1,0.29449749999912456,None,700.2564287999994,700.7677068000194,701.7668908000342,701.750776800036,,,,,,,,,,,,,,,,,006,001,2025-04-28_22h35.22.477,Cued GoNogo Task,2024.2.4,60.223114597228246,2025-04-28 22h35.34.320385 +0200,
block/CondBlock2.xlsx,You are about to start a block of type 2 trials.,15,15,0,Go,Go,0.18,0.2,0.05,space,blue,vertical,space,271.64316320000216,None,space,1,0.2673462000093423,None,,,,0,1,1,1,0,15,15,15,701.7668908000342,,,,,,,,,,,,,,,,701.7509935999988,701.7668908000342,702.4661541000241,702.4661541000241,702.9658588999882,702.950027999992,702.9507751000347,702.9658588999882,703.1489984000218,703.332250699983,703.332250699983,703.6162750000367,space,1,0.2673462000093423,None,703.6206079000258,704.1316201000009,705.1309492000146,705.1149633000023,,,,,,,,,,,,,,,,,006,001,2025-04-28_22h35.22.477,Cued GoNogo Task,2024.2.4,60.223114597228246,2025-04-28 22h35.34.320385 +0200,
block/CondBlock2.xlsx,You are about to start a block of type 2 trials.,16,16,0,Go,Go,0.24,0.2,0.05,space,green,vertical,space,271.64316320000216,None,space,1,0.2677667000098154,None,,,,0,1,1,1,0,16,16,16,705.1309492000146,,,,,,,,,,,,,,,,705.1152432999806,705.1309492000146,705.8302728999988,705.8302728999988,706.3297912999988,706.3139711000258,706.3146590000251,706.3297912999988,706.5794814000255,706.7626772000222,706.7626772000222,707.0466577000334,space,1,0.2677667000098154,None,707.0470088000293,707.5619081000332,708.5611502000247,708.5450946000055,,,,,,,,,,,,,,,,,006,001,2025-04-28_22h35.22.477,Cued GoNogo Task,2024.2.4,60.223114597228246,2025-04-28 22h35.34.320385 +0200,
block/CondBlock2.xlsx,You are about to start a block of type 2 trials.,17,17,0,Go,Go,0.26,0.2,0.05,space,blue,vertical,space,271.64316320000216,None,space,1,0.29334380000364035,None,,,,0,1,1,1,0,17,17,17,708.5611502000247,,,,,,,,,,,,,,,,708.5452760999906,708.5611502000247,709.2606452000327,709.2606452000327,709.7599801000324,709.7438698000042,709.7445870999945,709.7599801000324,710.0266468999907,710.2095945000183,710.2095945000183,710.510493000038,space,1,0.29334380000364035,None,710.5136623000144,711.0258481000201,712.0250698000309,712.0090026999824,,,,,,,,,,,,,,,,,006,001,2025-04-28_22h35.22.477,Cued GoNogo Task,2024.2.4,60.223114597228246,2025-04-28 22h35.34.320385 +0200,
block/CondBlock2.xlsx,You are about to start a block of type 2 trials.,18,18,0,Go,Go,0.1,0.05,0.2,space,blue,horizontal,space,271.64316320000216,None,space,1,0.29964780004229397,None,,,,0,1,1,1,0,18,18,18,712.0250698000309,,,,,,,,,,,,,,,,712.0092189999996,712.0250698000309,712.7244643000304,712.7244643000304,713.2241479000077,713.2083088000072,713.2089223000221,713.2241479000077,713.3238497999846,713.5237488999846,713.5237488999846,713.8260179000208,space,1,0.29964780004229397,None,713.8294395999983,714.3397720000357,715.3387645999901,715.3234292999841,,,,,,,,,,,,,,,,,006,001,2025-04-28_22h35.22.477,Cued GoNogo Task,2024.2.4,60.223114597228246,2025-04-28 22h35.34.320385 +0200,
block/CondBlock2.xlsx,You are about to start a block of type 2 trials.,19,19,0,Go,Go,0.46,0.2,0.05,space,blue,vertical,space,271.64316320000216,None,space,1,0.2915109000168741,None,,,,0,1,1,1,0,19,19,19,715.3387645999901,,,,,,,,,,,,,,,,715.323747300019,715.3387645999901,716.038402599981,716.038402599981,716.5379207000369,716.5220549000078,716.5227680000244,716.5379207000369,717.0041902000085,717.1874066999881,717.1874066999881,717.4883454000228,space,1,0.2915109000168741,None,717.4916248000227,718.0035160999978,719.0025707000168,718.9864019000088,,,,,,,,,,,,,,,,,006,001,2025-04-28_22h35.22.477,Cued GoNogo Task,2024.2.4,60.223114597228246,2025-04-28 22h35.34.320385 +0200,
block/CondBlock2.xlsx,You are about to start a block of type 2 trials.,20,20,0,Go,Go,0.3,0.05,0.2,space,blue,horizontal,space,271.64316320000216,None,space,1,0.3058848999789916,None,,,,0,1,1,1,0,20,20,20,719.0025707000168,,,,,,,,,,,,,,,,718.9866140999948,719.0025707000168,719.7020070999861,719.7020070999861,720.2018375000334,720.185586000036,720.1860366000328,720.2018375000334,720.5012900999864,720.7011485000257,720.7011485000257,721.0188373000128,space,1,0.3058848999789916,None,721.0222902999958,721.5339064000291,722.5330388000002,722.5171787000145,,,,,,,,,,,,,,,,,006,001,2025-04-28_22h35.22.477,Cued GoNogo Task,2024.2.4,60.223114597228246,2025-04-28 22h35.34.320385 +0200,
block/CondBlock2.xlsx,You are about to start a block of type 2 trials.,21,21,0,Go,Go,0.23,0.05,0.2,space,green,horizontal,space,271.64316320000216,None,space,1,0.25764209998305887,None,,,,0,1,1,1,0,21,21,21,722.5330388000002,,,,,,,,,,,,,,,,722.5174668999971,722.5330388000002,723.2325483000022,723.2325483000022,723.7320436000009,723.7162523000152,723.7168870000169,723.7320436000009,723.9651514000143,724.14842089999,724.14842089999,724.4157882999862,space,1,0.25764209998305887,None,724.4197860999848,724.931234800024,725.9301732000313,725.9146322000306,,,,,,,,,,,,,,,,,006,001,2025-04-28_22h35.22.477,Cued GoNogo Task,2024.2.4,60.223114597228246,2025-04-28 22h35.34.320385 +0200,
block/CondBlock2.xlsx,You are about to start a block of type 2 trials.,22,22,0,Go,Go,0.19,0.2,0.05,space,green,vertical,space,271.64316320000216,None,space,1,0.2627102000406012,None,,,,0,1,1,1,0,22,22,22,725.9301732000313,,,,,,,,,,,,,,,,725.9150337000028,725.9301732000313,726.6298207000364,726.6298207000364,727.1293024999904,727.1132766000228,727.1139206000371,727.1293024999904,727.3290399999823,727.5122584000346,727.5122584000346,727.7797936000279,space,1,0.2627102000406012,None,727.7828842999879,728.2950052000233,729.2942758999998,729.2784670999972,,,,,,,,,,,,,,,,,006,001,2025-04-28_22h35.22.477,Cued GoNogo Task,2024.2.4,60.223114597228246,2025-04-28 22h35.34.320385 +0200,
block/CondBlock2.xlsx,You are about to start a block of type 2 trials.,23,23,0,NoGo,NoGo,0.41,0.2,0.05,none,blue,vertical,space,271.64316320000216,None,None,1,,,,,,0,1,1,1,0,23,23,23,729.2942758999998,,,,,,,,,,,,,,,,729.2788271000027,729.2942758999998,729.9937655000249,729.9937655000249,730.493103899993,730.4771876999876,730.4777785000042,730.493103899993,730.9093978999881,731.0926826000214,731.0926826000214,731.5762764000101,None,1,,,731.5788477000315,732.0919709000154,733.0911233000224,733.075048800034,731.5923077000189,731.5923077000189,,,,,,,,,,,,,,,006,001,2025-04-28_22h35.22.477,Cued GoNogo Task,2024.2.4,60.223114597228246,2025-04-28 22h35.34.320385 +0200,
block/CondBlock2.xlsx,You are about to start a block of type 2 trials.,24,24,0,Go,Go,0.17,0.2,0.05,space,blue,vertical,space,271.64316320000216,None,space,1,0.32582209998508915,None,,,,0,1,1,1,0,24,24,24,733.0911233000224,,,,,,,,,,,,,,,,733.0752644999884,733.0911233000224,733.790574099985,733.790574099985,734.2899051000131,734.2741382999811,734.2746327000204,734.2899051000131,734.4732801000355,734.6564575000084,734.6564575000084,734.9902960000327,space,1,0.32582209998508915,None,734.9931796999881,735.5056914000306,736.5050167000154,736.4888586000307,,,,,,,,,,,,,,,,,006,001,2025-04-28_22h35.22.477,Cued GoNogo Task,2024.2.4,60.223114597228246,2025-04-28 22h35.34.320385 +0200,
block/CondBlock2.xlsx,You are about to start a block of type 2 trials.,25,25,0,Go,Go,0.27,0.05,0.2,space,blue,horizontal,space,271.64316320000216,None,space,1,0.2852415000088513,None,,,,0,1,1,1,0,25,25,25,736.5050167000154,,,,,,,,,,,,,,,,736.4892192999832,736.5050167000154,737.2042631999939,737.2042631999939,737.7039010000299,737.687624800019,737.6881870999932,737.7039010000299,737.9871133000124,738.1702484000125,738.1702484000125,738.4713827000232,space,1,0.2852415000088513,None,738.4751592000248,738.9861839000368,739.9853748999885,739.9698154000216,,,,,,,,,,,,,,,,,006,001,2025-04-28_22h35.22.477,Cued GoNogo Task,2024.2.4,60.223114597228246,2025-04-28 22h35.34.320385 +0200,
block/CondBlock2.xlsx,You are about to start a block of type 2 trials.,26,26,0,Go,Go,0.26,0.05,0.2,space,green,horizontal,space,271.64316320000216,None,space,1,0.2929878000286408,None,,,,0,1,1,1,0,26,26,26,739.9853748999885,,,,,,,,,,,,,,,,739.9702822000254,739.9853748999885,740.6850533999968,740.6850533999968,741.1845179999946,741.1690025000134,741.1697229000274,741.1845179999946,741.4509459999972,741.6339494999847,741.6339494999847,741.9347728000139,space,1,0.2929878000286408,None,741.9389466000139,742.4501045999932,743.4490881999955,743.4333565999987,,,,,,,,,,,,,,,,,006,001,2025-04-28_22h35.22.477,Cued GoNogo Task,2024.2.4,60.223114597228246,2025-04-28 22h35.34.320385 +0200,
block/CondBlock2.xlsx,You are about to start a block of type 2 trials.,27,27,0,Go,Go,0.22,0.2,0.05,space,green,vertical,space,271.64316320000216,None,space,1,0.25404580001486465,None,,,,0,1,1,1,0,27,27,27,743.4490881999955,,,,,,,,,,,,,,,,743.4336440000334,743.4490881999955,744.1487096000346,744.1487096000346,744.6484963999828,744.6323743999819,744.6329400999821,744.6484963999828,744.881356500031,745.0646237999899,745.0646237999899,745.3317638000008,space,1,0.25404580001486465,None,745.3357802000246,745.8472723999876,746.8462932999828,746.8304814000148,,,,,,,,,,,,,,,,,006,001,2025-04-28_22h35.22.477,Cued GoNogo Task,2024.2.4,60.223114597228246,2025-04-28 22h35.34.320385 +0200,
block/CondBlock2.xlsx,You are about to start a block of type 2 trials.,28,28,0,Go,Go,0.19,0.05,0.2,space,blue,horizontal,space,271.64316320000216,None,space,1,0.2977371999877505,None,,,,0,1,1,1,0,28,28,28,746.8462932999828,,,,,,,,,,,,,,,,746.8307529999875,746.8462932999828,747.5457086000242,747.5457086000242,748.0454991000006,748.0295470000128,748.0302396999905,748.0454991000006,748.2453524000011,748.4284566999995,748.4284566999995,748.7298096999875,space,1,0.2977371999877505,None,748.7339131000335,749.2444361000089,750.2434653000091,750.2279625000083,,,,,,,,,,,,,,,,,006,001,2025-04-28_22h35.22.477,Cued GoNogo Task,2024.2.4,60.223114597228246,2025-04-28 22h35.34.320385 +0200,
block/CondBlock2.xlsx,You are about to start a block of type 2 trials.,29,29,0,Go,Go,0.18,0.05,0.2,space,blue,horizontal,space,271.64316320000216,None,space,1,0.24515099998097867,None,,,,0,1,1,1,0,29,29,29,750.2434653000091,,,,,,,,,,,,,,,,750.2282946000341,750.2434653000091,750.9430508000078,750.9430508000078,751.4427579999901,751.4267969999928,751.4276185000199,751.4427579999901,751.6258454000344,751.8090727000381,751.8090727000381,752.0596579000121,space,1,0.24515099998097867,None,752.0627785000252,752.5751163000241,753.5741596000153,753.55851599999,,,,,,,,,,,,,,,,,006,001,2025-04-28_22h35.22.477,Cued GoNogo Task,2024.2.4,60.223114597228246,2025-04-28 22h35.34.320385 +0200,
block/CondBlock2.xlsx,You are about to start a block of type 2 trials.,30,30,0,NoGo,NoGo,0.23,0.2,0.05,none,blue,vertical,space,271.64316320000216,None,space,0,0.2410624999902211,None,,,,0,1,1,1,0,30,30,30,753.5741596000153,,,,,,,,,,,,,,,,753.5587854000041,753.5741596000153,754.2736307000159,754.2736307000159,754.7731609999901,754.7571899000322,754.7577611000161,754.7731609999901,755.0062663999852,755.1894762000302,755.1894762000302,755.4407711999957,space,0,0.2410624999902211,None,755.4468520000228,755.9556213000324,756.9552697000327,756.9393222000217,,,,,,,,,,,,,,,,,006,001,2025-04-28_22h35.22.477,Cued GoNogo Task,2024.2.4,60.223114597228246,2025-04-28 22h35.34.320385 +0200,
block/CondBlock2.xlsx,You are about to start a block of type 2 trials.,31,31,0,Go,Go,0.43,0.2,0.05,space,green,vertical,space,271.64316320000216,None,space,1,0.26826069998787716,None,,,,0,1,1,1,0,31,31,31,756.9552697000327,,,,,,,,,,,,,,,,756.9395809000125,756.9552697000327,757.6541636000038,757.6541636000038,758.1537806999986,758.1376117999898,758.1381537999841,758.1537806999986,758.5869164000032,758.7701653999975,758.7701653999975,759.0542775000213,space,1,0.26826069998787716,None,759.0595255999942,759.5692778000375,760.5684632000048,760.5528429999831,,,,,,,,,,,,,,,,,006,001,2025-04-28_22h35.22.477,Cued GoNogo Task,2024.2.4,60.223114597228246,2025-04-28 22h35.34.320385 +0200,
block/CondBlock2.xlsx,You are about to start a block of type 2 trials.,32,32,0,Go,Go,0.13,0.05,0.2,space,blue,horizontal,space,271.64316320000216,None,space,1,0.2909751999541186,None,,,,0,1,1,1,0,32,32,32,760.5684632000048,,,,,,,,,,,,,,,,760.5532021999825,760.5684632000048,761.2677452000207,761.2677452000207,761.7673413000302,761.7515397000243,761.7521949000075,761.7673413000302,761.9007321000099,762.0838362000068,762.0838362000068,762.384891099995,space,1,0.2909751999541186,None,762.3895658000256,762.8998482000316,763.8990854999865,763.8833188000135,,,,,,,,,,,,,,,,,006,001,2025-04-28_22h35.22.477,Cued GoNogo Task,2024.2.4,60.223114597228246,2025-04-28 22h35.34.320385 +0200,
block/CondBlock2.xlsx,You are about to start a block of type 2 trials.,33,33,0,Go,Go,0.45,0.05,0.2,space,green,horizontal,space,271.64316320000216,None,space,1,0.21177270001498982,None,,,,0,1,1,1,0,33,33,33,763.8990854999865,,,,,,,,,,,,,,,,763.8836499000317,763.8990854999865,764.5983147000079,764.5983147000079,765.0981660999823,765.0824743999983,765.0832319000037,765.0981660999823,765.5478040000307,765.7474276000285,765.7474276000285,765.9650405999855,space,1,0.21177270001498982,None,765.9693901999854,766.4805151000037,,767.4798061000183,,,,,,,,,,,,,,,,,006,001,2025-04-28_22h35.22.477,Cued GoNogo Task,2024.2.4,60.223114597228246,2025-04-28 22h35.34.320385 +0200,
block/CondBlock2.xlsx,You are about to start a block of type 2 trials.,34,34,0,Go,Go,0.14,0.2,0.05,space,blue,vertical,space,271.64316320000216,None,space,1,0.28346479998435825,None,,,,0,1,1,1,0,34,34,34,767.4959911000333,,,,,,,,,,,,,,,,767.4802123000263,767.4959911000333,768.1788709000102,768.1954337999923,768.6786306999857,768.66290689999,768.663695700001,768.6786306999857,768.8284407000174,769.0114386000205,769.0114386000205,769.2968330000294,space,1,0.28346479998435825,None,769.3006014000275,769.8107477999874,770.8100517999846,770.7938704999979,,,,,,,,,,,,,,,,,006,001,2025-04-28_22h35.22.477,Cued GoNogo Task,2024.2.4,60.223114597228246,2025-04-28 22h35.34.320385 +0200,
block/CondBlock2.xlsx,You are about to start a block of type 2 trials.,35,35,0,Go,Go,0.11,0.2,0.05,space,blue,vertical,space,271.64316320000216,None,space,1,0.26512349996482953,None,,,,0,1,1,1,0,35,35,35,770.8100517999846,,,,,,,,,,,,,,,,770.7940706000081,770.8100517999846,771.5094125000178,771.5094125000178,772.0089756000089,771.9929565000348,771.9935498000123,772.0089756000089,772.125537600019,772.3089327000198,772.3089327000198,772.5767292000237,space,1,0.26512349996482953,None,772.5797375999973,773.0914214000222,774.0908179000253,774.075015200011,,,,,,,,,,,,,,,,,006,001,2025-04-28_22h35.22.477,Cued GoNogo Task,2024.2.4,60.223114597228246,2025-04-28 22h35.34.320385 +0200,
block/CondBlock2.xlsx,You are about to start a block of type 2 trials.,36,36,0,Go,Go,0.15,0.05,0.2,space,green,horizontal,space,271.64316320000216,None,space,1,0.2707421000231989,None,,,,0,1,1,1,0,36,36,36,774.0908179000253,,,,,,,,,,,,,,,,774.0754012999823,774.0908179000253,774.7901494000107,774.7901494000107,775.2898007000331,775.2744391000015,775.2756147999899,775.2898007000331,775.4397574000177,775.6393748000264,775.6393748000264,775.9237473999965,space,1,0.2707421000231989,None,775.9279954000376,776.4389178000274,,777.4380574999959,,,,,,,,,,,,,,,,,006,001,2025-04-28_22h35.22.477,Cued GoNogo Task,2024.2.4,60.223114597228246,2025-04-28 22h35.34.320385 +0200,
block/CondBlock2.xlsx,You are about to start a block of type 2 trials.,37,37,0,Go,Go,0.15,0.2,0.05,space,green,vertical,space,271.64316320000216,None,space,1,0.30805920000420883,None,,,,0,1,1,1,0,37,37,37,777.4543446000316,,,,,,,,,,,,,,,,777.4382486999966,777.4543446000316,778.1370609999867,778.1537338999915,778.6367123000091,778.6208071000292,778.6212998999981,778.6367123000091,778.7865785000031,778.9864461999969,778.9864461999969,779.3035880000098,space,1,0.30805920000420883,None,779.3065857000183,779.8192087000352,780.8182484999998,780.8027269000304,,,,,,,,,,,,,,,,,006,001,2025-04-28_22h35.22.477,Cued GoNogo Task,2024.2.4,60.223114597228246,2025-04-28 22h35.34.320385 +0200,
block/CondBlock2.xlsx,You are about to start a block of type 2 trials.,38,38,0,NoGo,NoGo,0.14,0.2,0.05,none,green,vertical,space,271.64316320000216,None,None,1,,,,,,0,1,1,1,0,38,38,38,780.8182484999998,,,,,,,,,,,,,,,,780.8031640999834,780.8182484999998,781.5178132000146,781.5178132000146,782.0175862000324,782.0015184000367,782.0021436000243,782.0175862000324,782.1671749000088,782.3506324000191,782.3506324000191,782.8348302000086,None,1,,,782.8386754000094,783.3495684000081,784.3489398999955,784.3327971000108,782.8499823000166,782.8499823000166,,,,,,,,,,,,,,,006,001,2025-04-28_22h35.22.477,Cued GoNogo Task,2024.2.4,60.223114597228246,2025-04-28 22h35.34.320385 +0200,
block/CondBlock2.xlsx,You are about to start a block of type 2 trials.,39,39,0,Go,Go,0.46,0.2,0.05,space,green,vertical,space,271.64316320000216,None,space,1,0.33798359998036176,None,,,,0,1,1,1,0,39,39,39,784.3489398999955,,,,,,,,,,,,,,,,784.3330577000161,784.3489398999955,785.0483689000248,785.0483689000248,785.5479196000379,785.5319921000046,785.5326921999804,785.5479196000379,786.0140921000275,786.197370800015,786.197370800015,786.5484353000065,space,1,0.33798359998036176,None,786.5540554000181,787.0633595000254,788.062583299994,788.0462776999921,,,,,,,,,,,,,,,,,006,001,2025-04-28_22h35.22.477,Cued GoNogo Task,2024.2.4,60.223114597228246,2025-04-28 22h35.34.320385 +0200,
block/CondBlock2.xlsx,You are about to start a block of type 2 trials.,40,40,0,Go,Go,0.5,0.05,0.2,space,blue,horizontal,space,271.64316320000216,None,space,1,0.37387750000925735,None,,,,0,1,1,1,0,40,40,40,788.062583299994,,,,,,,,,,,,,,,,788.0464748000377,788.062583299994,788.7619290000293,788.7619290000293,789.2616426000022,789.2453442999977,789.2459181000013,789.2616426000022,789.7610394000076,789.9610419000383,789.9610419000383,790.3450295000221,space,1,0.37387750000925735,None,790.3488948000013,790.8603827999905,,791.8598878000048,,,,,,,,,,,,,,,,,006,001,2025-04-28_22h35.22.477,Cued GoNogo Task,2024.2.4,60.223114597228246,2025-04-28 22h35.34.320385 +0200,
block/CondBlock2.xlsx,You are about to start a block of type 2 trials.,41,41,0,Go,Go,0.16,0.05,0.2,space,green,horizontal,space,271.64316320000216,None,space,1,0.2311836999724619,None,,,,0,1,1,1,0,41,41,41,791.876060199982,,,,,,,,,,,,,,,,791.8603355999803,791.876060199982,792.5587395000039,792.5753956999979,793.0583572000032,793.0423236000352,793.0428282000357,793.0583572000032,793.2248057000106,793.4081742999842,793.4081742999842,793.6425166000263,space,1,0.2311836999724619,None,793.6463727999944,794.1573805999942,795.1566125000245,795.1407735000248,,,,,,,,,,,,,,,,,006,001,2025-04-28_22h35.22.477,Cued GoNogo Task,2024.2.4,60.223114597228246,2025-04-28 22h35.34.320385 +0200,
