Block,blockMsg,thisN,thisTrialN,thisRepN,CueType,StimType,CueTime,Stim_Height,Stim_Width,CRESP,Color,Orientation,key_resp_2.keys,key_resp_2.rt,key_resp_2.duration,Key_Resp.keys,Key_Resp.corr,Key_Resp.rt,Key_Resp.duration,key_resp_3.keys,key_resp_3.rt,key_resp_3.duration,Blocks.thisRepN,Blocks.thisTrialN,Blocks.thisN,Blocks.thisIndex,Trials.thisRepN,Trials.thisTrialN,Trials.thisN,Trials.thisIndex,thisRow.t,notes,TaskIntro.started,fixation.started,key_resp.started,TaskIntro.stopped,key_resp.keys,key_resp.rt,key_resp.duration,BlockStart.started,BlockStart_Msg.started,key_resp_2.started,BlockStart.stopped,Blocks.key_resp_2.keys,Blocks.key_resp_2.rt,Blocks.key_resp_2.duration,Fixation.started,FixationPhase.started,Blank.started,FixationPhase.stopped,Blank.stopped,Fixation.stopped,Trial.started,Cue.started,Cue.stopped,GoNogo_Stim.started,Key_Resp.started,Trial.stopped,Trials.Key_Resp.keys,Trials.Key_Resp.corr,Trials.Key_Resp.rt,Trials.Key_Resp.duration,Feedback.started,Feedback_Present.started,Feedback_Present.stopped,Feedback.stopped,GoNogo_Stim.stopped,Key_Resp.stopped,BlockEnd.started,BlockEnd_Msg.started,key_resp_3.started,BlockEnd.stopped,Blocks.key_resp_3.keys,Blocks.key_resp_3.rt,Blocks.key_resp_3.duration,TaskEnd.started,ThankYou.started,key_resp_4.started,TaskEnd.stopped,key_resp_4.keys,key_resp_4.rt,key_resp_4.duration,participant,session,date,expName,psychopyVersion,frameRate,expStart,
,,,,,,,,,,,,,,,,,,,,,,,,,,,,,,,,,0.0019213000196032226,0.004511200007982552,0.004511200007982552,63.06495279999217,space,62.97927519999212,None,,,,,,,,,,,,,,,,,,,,,,,,,,,,,,,,,,,,,,,,,,,,001,001,2025-04-27_14h07.01.690,Cued GoNogo Task,2024.2.4,59.996676186768205,2025-04-27 14h07.09.550571 +0200,
block/CondBlock1.xlsx,You are about to start a block of type 1 trials.,0,0,0,Go,Go,0.13,0.05,0.2,space,blue,horizontal,space,6.084461899998132,None,space,1,0.3393225999898277,None,,,,0,0,0,0,0,0,0,0,69.26213390001794,,,,,,,,,63.07394219998969,63.076539299974684,63.076539299974684,69.1780614000163,space,6.084461899998132,None,69.25926439999603,69.26213390001794,69.89293809997616,69.97634240001207,70.39243140001781,70.37670780002372,70.377170199994,70.39243140001781,70.52565199998207,70.70896309998352,70.70896309998352,71.05919389997143,space,1,0.3393225999898277,None,71.08173779997742,71.55831739999121,72.57401260000188,72.55790989997331,,,,,,,,,,,,,,,,,001,001,2025-04-27_14h07.01.690,Cued GoNogo Task,2024.2.4,59.996676186768205,2025-04-27 14h07.09.550571 +0200,
block/CondBlock1.xlsx,You are about to start a block of type 1 trials.,1,1,0,NoGo,NoGo,0.43,0.05,0.2,none,blue,horizontal,space,6.084461899998132,None,None,1,,,,,,0,0,0,0,0,1,1,1,72.57401260000188,,,,,,,,,,,,,,,,72.55809930001851,72.57401260000188,73.27353419997962,73.27353419997962,73.77309349999996,73.75695670000277,73.75777540000854,73.77309349999996,74.20609469996998,74.38934310001787,74.38934310001787,74.87669329997152,None,1,,,74.87858889997005,75.389779500023,76.389979199972,76.37365299998783,74.89240110001992,74.89240110001992,,,,,,,,,,,,,,,001,001,2025-04-27_14h07.01.690,Cued GoNogo Task,2024.2.4,59.996676186768205,2025-04-27 14h07.09.550571 +0200,
block/CondBlock1.xlsx,You are about to start a block of type 1 trials.,2,2,0,Go,Go,0.12,0.2,0.05,space,blue,vertical,space,6.084461899998132,None,space,1,0.23296579997986555,None,,,,0,0,0,0,0,2,2,2,76.389979199972,,,,,,,,,,,,,,,,76.37390780000715,76.389979199972,77.0870124999783,77.10357219999423,77.58648150000954,77.57062030001543,77.57113509997725,77.58648150000954,77.7198835000163,77.90306420001434,77.90306420001434,78.13916899997275,space,1,0.23296579997986555,None,78.14506880001863,78.65250550000928,79.65155569999479,79.6359598999843,,,,,,,,,,,,,,,,,001,001,2025-04-27_14h07.01.690,Cued GoNogo Task,2024.2.4,59.996676186768205,2025-04-27 14h07.09.550571 +0200,
block/CondBlock1.xlsx,You are about to start a block of type 1 trials.,3,3,0,NoGo,NoGo,0.18,0.2,0.05,none,green,vertical,space,6.084461899998132,None,None,1,,,,,,0,0,0,0,0,3,3,3,79.65155569999479,,,,,,,,,,,,,,,,79.63633459998528,79.65155569999479,80.35104280000087,80.35104280000087,80.85079029999906,80.83505120000336,80.8360987000051,80.85079029999906,81.03396879998036,81.23372359998757,81.23372359998757,81.71720870002173,None,1,,,81.71978410001611,82.2327246000059,83.23205350001808,83.2157836999977,81.73326810001163,81.73326810001163,,,,,,,,,,,,,,,001,001,2025-04-27_14h07.01.690,Cued GoNogo Task,2024.2.4,59.996676186768205,2025-04-27 14h07.09.550571 +0200,
block/CondBlock1.xlsx,You are about to start a block of type 1 trials.,4,4,0,Go,Go,0.24,0.05,0.2,space,green,horizontal,space,6.084461899998132,None,space,1,0.08041090000187978,None,,,,0,0,0,0,0,4,4,4,83.23205350001808,,,,,,,,,,,,,,,,83.21604089997709,83.23205350001808,83.9313510999782,83.9313510999782,84.43099470000016,84.41490630002227,84.4155155000044,84.43099470000016,84.68089139997028,84.8640546000097,84.8640546000097,84.94866789999651,space,1,0.08041090000187978,None,84.95402830000967,85.46362250001403,86.46268370002508,86.44697059999453,,,,,,,,,,,,,,,,,001,001,2025-04-27_14h07.01.690,Cued GoNogo Task,2024.2.4,59.996676186768205,2025-04-27 14h07.09.550571 +0200,
block/CondBlock1.xlsx,You are about to start a block of type 1 trials.,5,5,0,Go,Go,0.21,0.05,0.2,space,blue,horizontal,space,6.084461899998132,None,space,1,0.35599319997709244,None,,,,0,0,0,0,0,5,5,5,86.46268370002508,,,,,,,,,,,,,,,,86.44726719998289,86.46268370002508,87.16204309999011,87.16204309999011,87.66179240000201,87.64571780001279,87.64632379997056,87.66179240000201,87.87804879999021,88.06136940000579,88.06136940000579,88.42870140000014,space,1,0.35599319997709244,None,88.43279669998446,88.94395609997446,89.94302250002511,89.92707299999893,,,,,,,,,,,,,,,,,001,001,2025-04-27_14h07.01.690,Cued GoNogo Task,2024.2.4,59.996676186768205,2025-04-27 14h07.09.550571 +0200,
block/CondBlock1.xlsx,You are about to start a block of type 1 trials.,6,6,0,Go,Go,0.11,0.2,0.05,space,blue,vertical,space,6.084461899998132,None,space,1,0.3178565999842249,None,,,,0,0,0,0,0,6,6,6,89.94302250002511,,,,,,,,,,,,,,,,89.92746999999508,89.94302250002511,90.64268180000363,90.64268180000363,91.14211740001338,91.12621359998593,91.1268217000179,91.14211740001338,91.25862719997531,91.44199630001094,91.44199630001094,91.77645190001931,space,1,0.3178565999842249,None,91.78199869999662,92.29111719998764,93.29033920000074,93.27486250002403,,,,,,,,,,,,,,,,,001,001,2025-04-27_14h07.01.690,Cued GoNogo Task,2024.2.4,59.996676186768205,2025-04-27 14h07.09.550571 +0200,
block/CondBlock1.xlsx,You are about to start a block of type 1 trials.,7,7,0,Go,Go,0.15,0.2,0.05,space,blue,vertical,space,6.084461899998132,None,space,1,0.44984249997651204,None,,,,0,0,0,0,0,7,7,7,93.29033920000074,,,,,,,,,,,,,,,,93.27518619998591,93.29033920000074,93.98966640001163,93.98966640001163,94.48944490001304,94.47346870001638,94.4744702000171,94.48944490001304,94.63927079999121,94.83915750001324,94.83915750001324,95.29175360000227,space,1,0.44984249997651204,None,95.29738950001774,95.80495219997829,96.80421849997947,96.78842539998004,,,,,,,,,,,,,,,,,001,001,2025-04-27_14h07.01.690,Cued GoNogo Task,2024.2.4,59.996676186768205,2025-04-27 14h07.09.550571 +0200,
block/CondBlock1.xlsx,You are about to start a block of type 1 trials.,8,8,0,NoGo,NoGo,0.3,0.05,0.2,none,blue,horizontal,space,6.084461899998132,None,None,1,,,,,,0,0,0,0,0,8,8,8,96.80421849997947,,,,,,,,,,,,,,,,96.78874460002407,96.80421849997947,97.50362859998131,97.50362859998131,98.0031077999738,97.98724270000821,97.98782799998298,98.0031077999738,98.30280569999013,98.50282870000228,98.50282870000228,98.98653739999281,None,1,,,98.99018419999629,99.50191499997163,100.5010869000107,100.48515959997894,99.00239229999715,99.00239229999715,,,,,,,,,,,,,,,001,001,2025-04-27_14h07.01.690,Cued GoNogo Task,2024.2.4,59.996676186768205,2025-04-27 14h07.09.550571 +0200,
block/CondBlock1.xlsx,You are about to start a block of type 1 trials.,9,9,0,NoGo,NoGo,0.17,0.05,0.2,none,blue,horizontal,space,6.084461899998132,None,space,0,0.2625930999638513,None,,,,0,0,0,0,0,9,9,9,100.5010869000107,,,,,,,,,,,,,,,,100.4854231000063,100.5010869000107,101.20059059996856,101.20059059996856,101.70027700002538,101.68421749997651,101.68490529997507,101.70027700002538,101.88340759999119,102.06655659998069,102.06655659998069,102.33456069999374,space,0,0.2625930999638513,None,102.34513450000668,102.8493315000087,,103.84856429998763,,,,,,,,,,,,,,,,,001,001,2025-04-27_14h07.01.690,Cued GoNogo Task,2024.2.4,59.996676186768205,2025-04-27 14h07.09.550571 +0200,
block/CondBlock1.xlsx,You are about to start a block of type 1 trials.,10,10,0,NoGo,NoGo,0.26,0.2,0.05,none,green,vertical,space,6.084461899998132,None,None,1,,,,,,0,0,0,0,0,10,10,10,103.86506460001692,,,,,,,,,,,,,,,,103.8488816000172,103.86506460001692,104.54796360002365,104.5645737000159,105.04747170000337,105.03158870001789,105.03242399997544,105.04747170000337,105.31385879998561,105.49704779998865,105.49704779998865,105.9806500999839,None,1,,,105.98356469999999,106.49616599996807,107.49538909998955,107.47974829998566,105.99658839998301,105.99658839998301,,,,,,,,,,,,,,,001,001,2025-04-27_14h07.01.690,Cued GoNogo Task,2024.2.4,59.996676186768205,2025-04-27 14h07.09.550571 +0200,
block/CondBlock1.xlsx,You are about to start a block of type 1 trials.,11,11,0,Go,Go,0.27,0.05,0.2,space,green,horizontal,space,6.084461899998132,None,space,1,0.4071725000394508,None,,,,0,0,0,0,0,11,11,11,107.49538909998955,,,,,,,,,,,,,,,,107.48017830000026,107.49538909998955,108.19478349998826,108.19478349998826,108.69425719999708,108.6785429000156,108.67935489997035,108.69425719999708,108.97755040001357,109.1607719999738,109.1607719999738,109.57829669996863,space,1,0.4071725000394508,None,109.58263179997448,110.09338330000173,,111.09258250001585,,,,,,,,,,,,,,,,,001,001,2025-04-27_14h07.01.690,Cued GoNogo Task,2024.2.4,59.996676186768205,2025-04-27 14h07.09.550571 +0200,
block/CondBlock1.xlsx,You are about to start a block of type 1 trials.,12,12,0,Go,Go,0.16,0.2,0.05,space,green,vertical,space,6.084461899998132,None,None,0,,,,,,0,0,0,0,0,12,12,12,111.10903659998439,,,,,,,,,,,,,,,,111.09297599998536,111.10903659998439,111.79181550000794,111.8083728000056,112.29132090002531,112.2751966000069,112.27574329997879,112.29132090002531,112.45783259999007,112.64108209998813,112.64108209998813,113.1245911999722,None,0,,,113.12968179996824,113.62361080001574,114.62440949998563,114.61023539997404,113.14078199997311,113.14078199997311,,,,,,,,,,,,,,,001,001,2025-04-27_14h07.01.690,Cued GoNogo Task,2024.2.4,59.996676186768205,2025-04-27 14h07.09.550571 +0200,
block/CondBlock1.xlsx,You are about to start a block of type 1 trials.,13,13,0,Go,Go,0.13,0.2,0.05,space,green,vertical,space,6.084461899998132,None,space,1,0.3900201999931596,None,,,,0,0,0,0,0,13,13,13,114.62440949998563,,,,,,,,,,,,,,,,114.61042550002458,114.62440949998563,115.42179260001285,115.42179260001285,,115.83834840002237,115.83878829999594,115.8551037000143,115.98824939999031,116.1547943999758,116.1547943999758,116.55568410002161,space,1,0.3900201999931596,None,116.55965239997022,117.07074230001308,118.06996160000563,118.05407090001972,,,,,,,,,,,,,,,,,001,001,2025-04-27_14h07.01.690,Cued GoNogo Task,2024.2.4,59.996676186768205,2025-04-27 14h07.09.550571 +0200,
block/CondBlock1.xlsx,You are about to start a block of type 1 trials.,14,14,0,Go,Go,0.12,0.05,0.2,space,blue,horizontal,space,6.084461899998132,None,space,1,0.24699739995412529,None,,,,0,0,0,0,0,14,14,14,118.06996160000563,,,,,,,,,,,,,,,,118.05436399998143,118.06996160000563,118.7694350000238,118.7694350000238,119.26896840002155,119.25302830000874,119.25387620000402,119.26896840002155,119.40232250001281,119.58539449999807,119.58539449999807,119.83719210000709,space,1,0.24699739995412529,None,119.84427150001284,120.35156839998672,121.35075819998747,121.33487379999133,,,,,,,,,,,,,,,,,001,001,2025-04-27_14h07.01.690,Cued GoNogo Task,2024.2.4,59.996676186768205,2025-04-27 14h07.09.550571 +0200,
block/CondBlock1.xlsx,You are about to start a block of type 1 trials.,15,15,0,Go,Go,0.45,0.2,0.05,space,blue,vertical,space,6.084461899998132,None,space,1,0.24914570001419634,None,,,,0,0,0,0,0,15,15,15,121.35075819998747,,,,,,,,,,,,,,,,121.33515479997732,121.35075819998747,122.04996749997372,122.04996749997372,122.54960969998501,122.53337790002115,122.53375719999894,122.54960969998501,122.99927460000617,123.19921789999353,123.19921789999353,123.45076169999084,space,1,0.24914570001419634,None,123.45468319999054,123.96511150000151,124.96438169997418,124.94841060001636,,,,,,,,,,,,,,,,,001,001,2025-04-27_14h07.01.690,Cued GoNogo Task,2024.2.4,59.996676186768205,2025-04-27 14h07.09.550571 +0200,
block/CondBlock1.xlsx,You are about to start a block of type 1 trials.,16,16,0,NoGo,NoGo,0.14,0.2,0.05,none,green,vertical,space,6.084461899998132,None,space,0,0.20844879996730015,None,,,,0,0,0,0,0,16,16,16,124.96438169997418,,,,,,,,,,,,,,,,124.9487752999994,124.96438169997418,125.6638356000185,125.6638356000185,126.1632055999944,126.14729039999656,126.14779750001617,126.1632055999944,126.31431220000377,126.49636579997605,126.49636579997605,126.71432249998907,space,0,0.20844879996730015,None,126.72015559999272,127.22928680002224,128.2284418999916,128.21296839998104,,,,,,,,,,,,,,,,,001,001,2025-04-27_14h07.01.690,Cued GoNogo Task,2024.2.4,59.996676186768205,2025-04-27 14h07.09.550571 +0200,
block/CondBlock1.xlsx,You are about to start a block of type 1 trials.,17,17,0,Go,Go,0.12,0.05,0.2,space,green,horizontal,space,6.084461899998132,None,space,1,0.25669139996171,None,,,,0,0,0,0,0,17,17,17,128.2284418999916,,,,,,,,,,,,,,,,128.21322039997904,128.2284418999916,128.92785189999267,128.92785189999267,129.4274940000032,129.41151649999665,129.41224540001713,129.4274940000032,129.56043160002446,129.74381939996965,129.74381939996965,130.01121520000743,space,1,0.25669139996171,None,130.01599049998913,130.52640540001448,131.5255204999703,131.50977800000692,,,,,,,,,,,,,,,,,001,001,2025-04-27_14h07.01.690,Cued GoNogo Task,2024.2.4,59.996676186768205,2025-04-27 14h07.09.550571 +0200,
block/CondBlock1.xlsx,You are about to start a block of type 1 trials.,18,18,0,Go,Go,0.47,0.2,0.05,space,blue,vertical,space,6.084461899998132,None,space,1,0.28963569999905303,None,,,,0,0,0,0,0,18,18,18,131.5255204999703,,,,,,,,,,,,,,,,131.51007650000975,131.5255204999703,132.22493219998432,132.22493219998432,132.72458749997895,132.70892110001296,132.70958259998588,132.72458749997895,133.20739170000888,133.39076330000535,133.39076330000535,133.69152100000065,space,1,0.28963569999905303,None,133.69548579998082,134.20665279997047,135.20585209998535,135.18985010002507,,,,,,,,,,,,,,,,,001,001,2025-04-27_14h07.01.690,Cued GoNogo Task,2024.2.4,59.996676186768205,2025-04-27 14h07.09.550571 +0200,
block/CondBlock1.xlsx,You are about to start a block of type 1 trials.,19,19,0,Go,Go,0.18,0.2,0.05,space,green,vertical,space,6.084461899998132,None,space,1,0.15694779995828867,None,,,,0,0,0,0,0,19,19,19,135.20585209998535,,,,,,,,,,,,,,,,135.19011929997941,135.20585209998535,135.9052996999817,135.9052996999817,136.40477949997876,136.38926109997556,136.3900637999759,136.40477949997876,136.588120099972,136.77143329998944,136.77143329998944,136.93882510002004,space,1,0.15694779995828867,None,136.94290259998525,137.45412639999995,138.4531713000033,138.43720899999607,,,,,,,,,,,,,,,,,001,001,2025-04-27_14h07.01.690,Cued GoNogo Task,2024.2.4,59.996676186768205,2025-04-27 14h07.09.550571 +0200,
block/CondBlock1.xlsx,You are about to start a block of type 1 trials.,20,20,0,Go,Go,0.19,0.2,0.05,space,blue,vertical,space,6.084461899998132,None,space,1,0.1732386999647133,None,,,,0,0,0,0,0,20,20,20,138.4531713000033,,,,,,,,,,,,,,,,138.43755029997556,138.4531713000033,139.15275680000195,139.15275680000195,139.65208999998868,139.63594339997508,139.63657680002507,139.65208999998868,139.85213780001504,140.03514110000106,140.03514110000106,140.2196288999985,space,1,0.1732386999647133,None,140.2236080999719,140.73478060000343,141.73379500000738,141.71777909999946,,,,,,,,,,,,,,,,,001,001,2025-04-27_14h07.01.690,Cued GoNogo Task,2024.2.4,59.996676186768205,2025-04-27 14h07.09.550571 +0200,
block/CondBlock1.xlsx,You are about to start a block of type 1 trials.,21,21,0,Go,Go,0.14,0.2,0.05,space,blue,vertical,space,6.084461899998132,None,space,1,0.1817049999954179,None,,,,0,0,0,0,0,21,21,21,141.73379500000738,,,,,,,,,,,,,,,,141.71807399997488,141.73379500000738,142.43314400000963,142.43314400000963,142.9328568999772,142.91673689999152,142.91736680001486,142.9328568999772,143.0827658000053,143.2659452999942,143.2659452999942,143.45077769999625,space,1,0.1817049999954179,None,143.45486509997863,143.96547280001687,144.96465139999054,144.94886000000406,,,,,,,,,,,,,,,,,001,001,2025-04-27_14h07.01.690,Cued GoNogo Task,2024.2.4,59.996676186768205,2025-04-27 14h07.09.550571 +0200,
block/CondBlock1.xlsx,You are about to start a block of type 1 trials.,22,22,0,Go,Go,0.15,0.2,0.05,space,blue,vertical,space,6.084461899998132,None,space,1,0.33465049997903407,None,,,,0,0,0,0,0,22,22,22,144.96465139999054,,,,,,,,,,,,,,,,144.94918809999945,144.96465139999054,145.66391740000108,145.66391740000108,146.16362299997127,146.14775539998664,146.14860860002227,146.16362299997127,146.31334120000247,146.5133163999999,146.5133163999999,146.8638023000094,space,1,0.33465049997903407,None,146.86728309997125,147.37922200001776,148.3784231999889,148.36250490002567,,,,,,,,,,,,,,,,,001,001,2025-04-27_14h07.01.690,Cued GoNogo Task,2024.2.4,59.996676186768205,2025-04-27 14h07.09.550571 +0200,
block/CondBlock1.xlsx,You are about to start a block of type 1 trials.,23,23,0,Go,Go,0.23,0.05,0.2,space,green,horizontal,space,6.084461899998132,None,space,1,0.23824470001272857,None,,,,0,0,0,0,0,23,23,23,148.3784231999889,,,,,,,,,,,,,,,,148.36275899998145,148.3784231999889,149.07789979997324,149.07789979997324,149.5773948999704,149.56139019998955,149.56208780000452,149.5773948999704,149.8105558999814,149.9936483000056,149.9936483000056,150.2449789000093,space,1,0.23824470001272857,None,150.2493964000023,150.75989310001023,,151.75895679998212,,,,,,,,,,,,,,,,,001,001,2025-04-27_14h07.01.690,Cued GoNogo Task,2024.2.4,59.996676186768205,2025-04-27 14h07.09.550571 +0200,
block/CondBlock1.xlsx,You are about to start a block of type 1 trials.,24,24,0,Go,Go,0.2,0.2,0.05,space,blue,vertical,space,6.084461899998132,None,space,1,0.2981128999963403,None,,,,0,0,0,0,0,24,24,24,151.77551030000905,,,,,,,,,,,,,,,,151.75929489999544,151.77551030000905,152.45845640002517,152.47486100002425,152.95803969999542,152.94198820000747,152.94261769996956,152.95803969999542,153.15783560002455,153.35768529999768,153.35768529999768,153.65873550000833,space,1,0.2981128999963403,None,153.66282069997396,154.17377260001376,155.17294979997678,155.15677840000717,,,,,,,,,,,,,,,,,001,001,2025-04-27_14h07.01.690,Cued GoNogo Task,2024.2.4,59.996676186768205,2025-04-27 14h07.09.550571 +0200,
block/CondBlock1.xlsx,You are about to start a block of type 1 trials.,25,25,0,Go,Go,0.15,0.2,0.05,space,blue,vertical,space,6.084461899998132,None,space,1,0.20713689998956397,None,,,,0,0,0,0,0,25,25,25,155.17294979997678,,,,,,,,,,,,,,,,155.1570166000165,155.17294979997678,155.87226819997886,155.87226819997886,156.37185370002408,156.35571630002232,156.35631469998043,156.37185370002408,156.5214540999732,156.72151539998595,156.72151539998595,156.9387556000147,space,1,0.20713689998956397,None,156.94155519997003,157.45426149998093,158.45349709998118,158.43746390001616,,,,,,,,,,,,,,,,,001,001,2025-04-27_14h07.01.690,Cued GoNogo Task,2024.2.4,59.996676186768205,2025-04-27 14h07.09.550571 +0200,
block/CondBlock1.xlsx,You are about to start a block of type 1 trials.,26,26,0,NoGo,NoGo,0.2,0.2,0.05,none,blue,vertical,space,6.084461899998132,None,space,0,0.19622800004435703,None,,,,0,0,0,0,0,26,26,26,158.45349709998118,,,,,,,,,,,,,,,,158.43775320000714,158.45349709998118,159.1529355000239,159.1529355000239,159.65240409999387,159.63690069998847,159.6378115999978,159.65240409999387,159.85246139997616,160.05229640001198,160.05229640001198,160.25354539998807,space,0,0.19622800004435703,None,160.25821030000225,160.7682983999839,161.7673281999887,161.75165519997245,,,,,,,,,,,,,,,,,001,001,2025-04-27_14h07.01.690,Cued GoNogo Task,2024.2.4,59.996676186768205,2025-04-27 14h07.09.550571 +0200,
block/CondBlock1.xlsx,You are about to start a block of type 1 trials.,27,27,0,Go,Go,0.29,0.05,0.2,space,green,horizontal,space,6.084461899998132,None,space,1,0.3030783999711275,None,,,,0,0,0,0,0,27,27,27,161.7673281999887,,,,,,,,,,,,,,,,161.75196389999473,161.7673281999887,162.46669480000855,162.46669480000855,162.9663441000157,162.9505978000234,162.95131009997567,162.9663441000157,163.26611799997045,163.44931479997467,163.44931479997467,163.76698660000693,space,1,0.3030783999711275,None,163.77064639999298,164.2819848000072,165.28105009999126,165.26546450000023,,,,,,,,,,,,,,,,,001,001,2025-04-27_14h07.01.690,Cued GoNogo Task,2024.2.4,59.996676186768205,2025-04-27 14h07.09.550571 +0200,
block/CondBlock1.xlsx,You are about to start a block of type 1 trials.,28,28,0,Go,Go,0.24,0.2,0.05,space,blue,vertical,space,6.084461899998132,None,space,1,0.2790269999532029,None,,,,0,0,0,0,0,28,28,28,165.28105009999126,,,,,,,,,,,,,,,,165.26579719997244,165.28105009999126,165.98045289999573,165.98045289999573,166.48030360002303,166.46425730001647,166.46486170002026,166.48030360002303,166.72990949999075,166.9130500999745,166.9130500999745,167.19711489998735,space,1,0.2790269999532029,None,167.20237610000186,167.71247530000983,168.71154509996995,168.69594659999711,,,,,,,,,,,,,,,,,001,001,2025-04-27_14h07.01.690,Cued GoNogo Task,2024.2.4,59.996676186768205,2025-04-27 14h07.09.550571 +0200,
block/CondBlock1.xlsx,You are about to start a block of type 1 trials.,29,29,0,Go,Go,0.15,0.05,0.2,space,green,horizontal,space,6.084461899998132,None,space,1,0.17158710001967847,None,,,,0,0,0,0,0,29,29,29,168.71154509996995,,,,,,,,,,,,,,,,168.6963223000057,168.71154509996995,169.4112284000148,169.4112284000148,169.91061050002463,169.89466119999997,169.89532339997822,169.91061050002463,170.06052190001355,170.26039050001418,170.26039050001418,170.44488829997135,space,1,0.17158710001967847,None,170.44804290001048,170.9599954999867,,171.9592769999872,,,,,,,,,,,,,,,,,001,001,2025-04-27_14h07.01.690,Cued GoNogo Task,2024.2.4,59.996676186768205,2025-04-27 14h07.09.550571 +0200,
block/CondBlock1.xlsx,You are about to start a block of type 1 trials.,30,30,0,Go,Go,0.23,0.2,0.05,space,green,vertical,space,6.084461899998132,None,space,1,0.11352179996902123,None,,,,0,0,0,0,0,30,30,30,171.97586090001278,,,,,,,,,,,,,,,,171.95969539997168,171.97586090001278,172.6584135000012,172.6750381999882,173.1580982999876,173.1423115999787,173.14306199998828,173.1580982999876,173.39114650001284,173.57432130002417,173.57432130002417,173.69288340001367,space,1,0.11352179996902123,None,173.69901470001787,174.2072243000148,175.2060784000205,175.1902706999681,,,,,,,,,,,,,,,,,001,001,2025-04-27_14h07.01.690,Cued GoNogo Task,2024.2.4,59.996676186768205,2025-04-27 14h07.09.550571 +0200,
block/CondBlock1.xlsx,You are about to start a block of type 1 trials.,31,31,0,Go,Go,0.28,0.2,0.05,space,green,vertical,space,6.084461899998132,None,space,1,0.19918160000815988,None,,,,0,0,0,0,0,31,31,31,175.2060784000205,,,,,,,,,,,,,,,,175.1905236999737,175.2060784000205,175.90583339997102,175.90583339997102,176.40549259999534,176.3894384999876,176.3901368000079,176.40549259999534,176.68836999998894,176.88836909999372,176.88836909999372,177.0905608999892,space,1,0.19918160000815988,None,177.0938681999687,177.60440080001717,178.60349409998162,178.58744959998876,,,,,,,,,,,,,,,,,001,001,2025-04-27_14h07.01.690,Cued GoNogo Task,2024.2.4,59.996676186768205,2025-04-27 14h07.09.550571 +0200,
block/CondBlock1.xlsx,You are about to start a block of type 1 trials.,32,32,0,Go,Go,0.19,0.2,0.05,space,green,vertical,space,6.084461899998132,None,space,1,0.25497980002546683,None,,,,0,0,0,0,0,32,32,32,178.60349409998162,,,,,,,,,,,,,,,,178.58765729999868,178.60349409998162,179.30291710002348,179.30291710002348,179.80248770001344,179.78686659998493,179.78759640001226,179.80248770001344,180.00237539998489,180.18558340001618,180.18558340001618,180.45394679997116,space,1,0.25497980002546683,None,180.45841189997736,180.9682891999837,181.96747869998217,181.9515348999994,,,,,,,,,,,,,,,,,001,001,2025-04-27_14h07.01.690,Cued GoNogo Task,2024.2.4,59.996676186768205,2025-04-27 14h07.09.550571 +0200,
block/CondBlock1.xlsx,You are about to start a block of type 1 trials.,33,33,0,Go,Go,0.12,0.2,0.05,space,green,vertical,space,6.084461899998132,None,space,1,0.17434250004589558,None,,,,0,0,0,0,0,33,33,33,181.96747869998217,,,,,,,,,,,,,,,,181.95185599999968,181.96747869998217,182.66684030002216,182.66684030002216,183.16648379998514,183.15048449998721,183.15110279998044,183.16648379998514,183.29974619997665,183.48292699997546,183.48292699997546,183.6671037999913,space,1,0.17434250004589558,None,183.671456400014,184.18256280000787,,185.1818498999928,,,,,,,,,,,,,,,,,001,001,2025-04-27_14h07.01.690,Cued GoNogo Task,2024.2.4,59.996676186768205,2025-04-27 14h07.09.550571 +0200,
block/CondBlock1.xlsx,You are about to start a block of type 1 trials.,34,34,0,Go,Go,0.18,0.2,0.05,space,blue,vertical,space,6.084461899998132,None,space,1,0.13421579997520894,None,,,,0,0,0,0,0,34,34,34,185.1979646999971,,,,,,,,,,,,,,,,185.18214380001882,185.1979646999971,185.88083669997286,185.89747429999989,186.3804404999828,186.36480560002383,186.36556100001326,186.3804404999828,186.56383749999804,186.7469522000174,186.7469522000174,186.89795359998243,space,1,0.13421579997520894,None,186.90251719998196,187.4128633000073,188.41221270000096,188.3961104999762,,,,,,,,,,,,,,,,,001,001,2025-04-27_14h07.01.690,Cued GoNogo Task,2024.2.4,59.996676186768205,2025-04-27 14h07.09.550571 +0200,
block/CondBlock1.xlsx,You are about to start a block of type 1 trials.,35,35,0,Go,Go,0.21,0.2,0.05,space,blue,vertical,space,6.084461899998132,None,space,1,0.2454242999665439,None,,,,0,0,0,0,0,35,35,35,188.41221270000096,,,,,,,,,,,,,,,,188.39636890002294,188.41221270000096,189.11172919999808,189.11172919999808,189.6111076999805,189.59549620002508,189.59617979999166,189.6111076999805,189.82807899999898,190.01076019997708,190.01076019997708,190.2619523999747,space,1,0.2454242999665439,None,190.26676139998017,190.77677830000175,191.77618049999,191.76031819998752,,,,,,,,,,,,,,,,,001,001,2025-04-27_14h07.01.690,Cued GoNogo Task,2024.2.4,59.996676186768205,2025-04-27 14h07.09.550571 +0200,
block/CondBlock1.xlsx,You are about to start a block of type 1 trials.,36,36,0,Go,Go,0.2,0.2,0.05,space,green,vertical,space,6.084461899998132,None,space,1,0.2738003999693319,None,,,,0,0,0,0,0,36,36,36,191.77618049999,,,,,,,,,,,,,,,,191.76054109999677,191.77618049999,192.47527860000264,192.47527860000264,192.97485290002078,192.95924280001782,192.96003899996867,192.97485290002078,193.1750769999926,193.3746395999915,193.3746395999915,193.65923400002066,space,1,0.2738003999693319,None,193.665145499981,194.173997099977,195.1732206000015,195.1578109000111,,,,,,,,,,,,,,,,,001,001,2025-04-27_14h07.01.690,Cued GoNogo Task,2024.2.4,59.996676186768205,2025-04-27 14h07.09.550571 +0200,
block/CondBlock1.xlsx,You are about to start a block of type 1 trials.,37,37,0,Go,Go,0.45,0.05,0.2,space,blue,horizontal,space,6.084461899998132,None,space,1,0.3392716000089422,None,,,,0,0,0,0,0,37,37,37,195.1732206000015,,,,,,,,,,,,,,,,195.1581692000036,195.1732206000015,195.87266839999938,195.87266839999938,196.37220919999527,196.3564526999835,196.35734899999807,196.37220919999527,196.8218884000089,197.02170769998338,197.02170769998338,197.37278049997985,space,1,0.3392716000089422,None,197.37767399998847,197.88771490001818,198.88683510001283,198.87083749996964,,,,,,,,,,,,,,,,,001,001,2025-04-27_14h07.01.690,Cued GoNogo Task,2024.2.4,59.996676186768205,2025-04-27 14h07.09.550571 +0200,
block/CondBlock1.xlsx,You are about to start a block of type 1 trials.,38,38,0,Go,Go,0.13,0.05,0.2,space,blue,horizontal,space,6.084461899998132,None,space,1,0.19041929999366403,None,,,,0,0,0,0,0,38,38,38,198.88683510001283,,,,,,,,,,,,,,,,198.8711807000218,198.88683510001283,199.58619369997177,199.58619369997177,200.08602039999096,200.07033750001574,200.07109739998123,200.08602039999096,200.21918919996824,200.40225819998886,200.40225819998886,200.60348629998043,space,1,0.19041929999366403,None,200.60728050000034,201.11843680002494,202.1174847999937,202.10195430001477,,,,,,,,,,,,,,,,,001,001,2025-04-27_14h07.01.690,Cued GoNogo Task,2024.2.4,59.996676186768205,2025-04-27 14h07.09.550571 +0200,
block/CondBlock1.xlsx,You are about to start a block of type 1 trials.,39,39,0,Go,Go,0.46,0.2,0.05,space,blue,vertical,space,6.084461899998132,None,space,1,0.09840950003126636,None,,,,0,0,0,0,0,39,39,39,202.1174847999937,,,,,,,,,,,,,,,,202.10236279998207,202.1174847999937,202.81690729997354,202.81690729997354,203.31660229997942,203.30077899998287,203.30145430000266,203.31660229997942,203.78279490000568,203.96603399998276,203.96603399998276,204.06884640001226,space,1,0.09840950003126636,None,204.07345789996907,204.58215640002163,205.5812966999947,205.56544769997708,,,,,,,,,,,,,,,,,001,001,2025-04-27_14h07.01.690,Cued GoNogo Task,2024.2.4,59.996676186768205,2025-04-27 14h07.09.550571 +0200,
block/CondBlock1.xlsx,You are about to start a block of type 1 trials.,40,40,0,Go,Go,0.29,0.2,0.05,space,blue,vertical,space,6.084461899998132,None,space,1,0.26432500005466864,None,,,,0,0,0,0,0,40,40,40,205.5812966999947,,,,,,,,,,,,,,,,205.5657754999702,205.5812966999947,206.28087660000892,206.28087660000892,206.78046109998832,206.76421019999543,206.76467589999083,206.78046109998832,207.08015039999736,207.26328830001876,207.26328830001876,207.53082019998692,space,1,0.26432500005466864,None,207.53739429998677,208.04607250000117,209.04522089997772,209.0293626000057,,,,,,,,,,,,,,,,,001,001,2025-04-27_14h07.01.690,Cued GoNogo Task,2024.2.4,59.996676186768205,2025-04-27 14h07.09.550571 +0200,
block/CondBlock1.xlsx,You are about to start a block of type 1 trials.,41,41,0,Go,Go,0.22,0.2,0.05,space,blue,vertical,space,6.084461899998132,None,space,1,0.08326490002218634,None,,,,0,0,0,0,0,41,41,41,209.04522089997772,,,,,,,,,,,,,,,,209.02971709996928,209.04522089997772,209.7446836999734,209.7446836999734,210.24433939997107,210.22833930002525,210.2289958000183,210.24433939997107,210.47742750000907,210.66048339998815,210.66048339998815,210.74631840002257,space,1,0.08326490002218634,None,210.75010569998994,211.2600188999786,212.25927390001016,212.24324290000368,,,,,,,,,,,,,,,,,001,001,2025-04-27_14h07.01.690,Cued GoNogo Task,2024.2.4,59.996676186768205,2025-04-27 14h07.09.550571 +0200,
block/CondBlock1.xlsx,You are about to start a block of type 1 trials.,42,42,0,Go,Go,0.49,0.2,0.05,space,blue,vertical,space,6.084461899998132,None,space,1,0.2191043000202626,None,,,,0,0,0,0,0,42,42,42,212.25927390001016,,,,,,,,,,,,,,,,212.24352830002317,212.25927390001016,212.9585056999931,212.9585056999931,213.4581054999726,213.44217330001993,213.44269930000883,213.4581054999726,213.95799129997613,214.14095879998058,214.14095879998058,214.37513379997108,space,1,0.2191043000202626,None,214.3788373999996,214.89058609999483,215.8896090000053,215.8738351999782,,,,,,,,,,,,,,,,,001,001,2025-04-27_14h07.01.690,Cued GoNogo Task,2024.2.4,59.996676186768205,2025-04-27 14h07.09.550571 +0200,
block/CondBlock1.xlsx,You are about to start a block of type 1 trials.,43,43,0,Go,Go,0.2,0.2,0.05,space,blue,vertical,space,6.084461899998132,None,space,1,0.1280634999857284,None,,,,0,0,0,0,0,43,43,43,215.8896090000053,,,,,,,,,,,,,,,,215.87413100001868,215.8896090000053,216.58900480001466,216.58900480001466,217.08844409999438,217.0728544999729,217.07350220001535,217.08844409999438,217.28853099996923,217.48819240002194,217.48819240002194,217.6227770000114,space,1,0.1280634999857284,None,217.62718239997048,218.13768230000278,219.1368560999981,219.12132279999787,,,,,,,,,,,,,,,,,001,001,2025-04-27_14h07.01.690,Cued GoNogo Task,2024.2.4,59.996676186768205,2025-04-27 14h07.09.550571 +0200,
block/CondBlock1.xlsx,You are about to start a block of type 1 trials.,44,44,0,Go,Go,0.3,0.05,0.2,space,blue,horizontal,space,6.084461899998132,None,space,1,0.25237709999782965,None,,,,0,0,0,0,0,44,44,44,219.1368560999981,,,,,,,,,,,,,,,,219.12173760001315,219.1368560999981,219.83616449998226,219.83616449998226,220.33594279998215,220.32021299999906,220.32111209997674,220.33594279998215,220.6356092999922,220.83544300001813,220.83544300001813,221.10325190000003,space,1,0.25237709999782965,None,221.10762349999277,221.61806499998784,222.61747240001569,222.60137290001148,,,,,,,,,,,,,,,,,001,001,2025-04-27_14h07.01.690,Cued GoNogo Task,2024.2.4,59.996676186768205,2025-04-27 14h07.09.550571 +0200,
block/CondBlock1.xlsx,You are about to start a block of type 1 trials.,45,45,0,NoGo,NoGo,0.21,0.05,0.2,none,green,horizontal,space,6.084461899998132,None,space,0,0.11964750004699454,None,,,,0,0,0,0,0,45,45,45,222.61747240001569,,,,,,,,,,,,,,,,222.60164429998258,222.61747240001569,223.31666870001936,223.31666870001936,223.81635410001036,223.80049080000026,223.80119069997454,223.81635410001036,224.03301620000275,224.21603409998352,224.21603409998352,224.35049799998524,space,0,0.11964750004699454,None,224.35566090000793,224.86534610000672,225.8647037000046,225.84890049998648,,,,,,,,,,,,,,,,,001,001,2025-04-27_14h07.01.690,Cued GoNogo Task,2024.2.4,59.996676186768205,2025-04-27 14h07.09.550571 +0200,
block/CondBlock1.xlsx,You are about to start a block of type 1 trials.,46,46,0,NoGo,NoGo,0.45,0.05,0.2,none,blue,horizontal,space,6.084461899998132,None,None,1,,,,,,0,0,0,0,0,46,46,46,225.8647037000046,,,,,,,,,,,,,,,,225.8492244000081,225.8647037000046,226.5641983000096,226.5641983000096,227.06367220001994,227.0479220999987,227.04871980001917,227.06367220001994,227.5132821999723,227.7130900999764,227.7130900999764,228.19721090001985,None,1,,,228.19998360000318,228.71234700002242,229.7116781999939,229.69546060002176,228.21265709999716,228.21265709999716,,,,,,,,,,,,,,,001,001,2025-04-27_14h07.01.690,Cued GoNogo Task,2024.2.4,59.996676186768205,2025-04-27 14h07.09.550571 +0200,
block/CondBlock1.xlsx,You are about to start a block of type 1 trials.,47,47,0,Go,Go,0.24,0.05,0.2,space,green,horizontal,space,6.084461899998132,None,space,1,0.2486028000130318,None,,,,0,0,0,0,0,47,47,47,229.7116781999939,,,,,,,,,,,,,,,,229.69576440000674,229.7116781999939,230.41093130002264,230.41093130002264,230.91050080000423,230.8944019000046,230.89489830000093,230.91050080000423,231.16036649997113,231.34353949996876,231.34353949996876,231.59533330000704,space,1,0.2486028000130318,None,231.5998558999854,232.1095605000155,233.10870400001295,233.09269969997695,,,,,,,,,,,,,,,,,001,001,2025-04-27_14h07.01.690,Cued GoNogo Task,2024.2.4,59.996676186768205,2025-04-27 14h07.09.550571 +0200,
block/CondBlock1.xlsx,You are about to start a block of type 1 trials.,48,48,0,NoGo,NoGo,0.15,0.2,0.05,none,blue,vertical,space,6.084461899998132,None,None,1,,,,,,0,0,0,0,0,48,48,48,233.10870400001295,,,,,,,,,,,,,,,,233.0929648000165,233.10870400001295,233.8079839000129,233.8079839000129,234.3077440999914,234.29205270000966,234.29300220002187,234.3077440999914,234.45755029999418,234.6575982000213,234.6575982000213,235.14164859999437,None,1,,,235.1454015999916,235.65663899999345,236.65606489998754,236.6401201999979,235.1571122999885,235.1571122999885,,,,,,,,,,,,,,,001,001,2025-04-27_14h07.01.690,Cued GoNogo Task,2024.2.4,59.996676186768205,2025-04-27 14h07.09.550571 +0200,
block/CondBlock1.xlsx,You are about to start a block of type 1 trials.,49,49,0,Go,Go,0.12,0.05,0.2,space,blue,horizontal,space,6.084461899998132,None,space,1,0.19629529997473583,None,,,,0,0,0,0,0,49,49,49,236.65606489998754,,,,,,,,,,,,,,,,236.64043580001453,236.65606489998754,237.35518969997065,237.35518969997065,237.85475629998837,237.83910540002398,237.8399407999823,237.85475629998837,237.98813650000375,238.17120869999053,238.17120869999053,238.37217039999086,space,1,0.19629529997473583,None,238.376422500005,238.88736310001696,239.8864951999858,239.8710908999783,,,,,,,,,,,,,,,,,001,001,2025-04-27_14h07.01.690,Cued GoNogo Task,2024.2.4,59.996676186768205,2025-04-27 14h07.09.550571 +0200,
block/CondBlock1.xlsx,You are about to start a block of type 1 trials.,50,50,0,Go,Go,0.22,0.2,0.05,space,green,vertical,space,6.084461899998132,None,space,1,0.39504490001127124,None,,,,0,0,0,0,0,50,50,50,239.8864951999858,,,,,,,,,,,,,,,,239.8715120999841,239.8864951999858,240.58596639998723,240.58596639998723,241.0854075999814,241.069302399992,241.0697807999677,241.0854075999814,241.31872530002147,241.50182140001561,241.50182140001561,241.90311880002264,space,1,0.39504490001127124,None,241.9106155000045,242.4178887999733,243.41685430001235,243.40099360002205,,,,,,,,,,,,,,,,,001,001,2025-04-27_14h07.01.690,Cued GoNogo Task,2024.2.4,59.996676186768205,2025-04-27 14h07.09.550571 +0200,
block/CondBlock1.xlsx,You are about to start a block of type 1 trials.,51,51,0,Go,Go,0.28,0.05,0.2,space,green,horizontal,space,6.084461899998132,None,space,1,0.34170259995153174,None,,,,0,0,0,0,0,51,51,51,243.41685430001235,,,,,,,,,,,,,,,,243.40127149998443,243.41685430001235,244.11617190000834,244.11617190000834,244.61593490000814,244.60047180001857,244.60143659997266,244.61593490000814,244.89904310001293,245.0822583999834,245.0822583999834,245.43327739997767,space,1,0.34170259995153174,None,245.43799559999024,245.94828349997988,246.9474615000072,246.93126179999672,,,,,,,,,,,,,,,,,001,001,2025-04-27_14h07.01.690,Cued GoNogo Task,2024.2.4,59.996676186768205,2025-04-27 14h07.09.550571 +0200,
block/CondBlock1.xlsx,You are about to start a block of type 1 trials.,52,52,0,Go,Go,0.23,0.2,0.05,space,green,vertical,space,6.084461899998132,None,space,1,0.2702007999760099,None,,,,0,0,0,0,0,52,52,52,246.9474615000072,,,,,,,,,,,,,,,,246.9315071000019,246.9474615000072,247.6467268000124,247.6467268000124,248.14644440001575,248.1302818999975,248.13098620000528,248.14644440001575,248.37952650000807,248.5626400000183,248.5626400000183,248.84686160000274,space,1,0.2702007999760099,None,248.8506258999696,249.36195880000014,250.36127009999473,250.34513319999678,,,,,,,,,,,,,,,,,001,001,2025-04-27_14h07.01.690,Cued GoNogo Task,2024.2.4,59.996676186768205,2025-04-27 14h07.09.550571 +0200,
block/CondBlock1.xlsx,You are about to start a block of type 1 trials.,53,53,0,Go,Go,0.22,0.05,0.2,space,green,horizontal,space,6.084461899998132,None,space,1,0.2640583000029437,None,,,,0,0,0,0,0,53,53,53,250.36127009999473,,,,,,,,,,,,,,,,250.34534729999723,250.36127009999473,251.0607165999827,251.0607165999827,251.56007369997678,251.54433830000926,251.5450124000199,251.56007369997678,251.79348839999875,251.97641479998128,251.97641479998128,252.24458160001086,space,1,0.2640583000029437,None,252.24883759999648,252.75921539997216,253.75842470000498,253.74266579997493,,,,,,,,,,,,,,,,,001,001,2025-04-27_14h07.01.690,Cued GoNogo Task,2024.2.4,59.996676186768205,2025-04-27 14h07.09.550571 +0200,
block/CondBlock1.xlsx,You are about to start a block of type 1 trials.,54,54,0,NoGo,NoGo,0.14,0.05,0.2,none,green,horizontal,space,6.084461899998132,None,None,1,,,,,,0,0,0,0,0,54,54,54,253.75842470000498,,,,,,,,,,,,,,,,253.74296669999603,253.75842470000498,254.45796129998052,254.45796129998052,254.95735019998392,254.9415249999729,254.94234329997562,254.95735019998392,255.10728300001938,255.2903312999988,255.2903312999988,255.77411579998443,None,1,,,255.77681339997798,256.2897847999702,257.28880179999396,257.2729423000128,255.78995910001686,255.78995910001686,,,,,,,,,,,,,,,001,001,2025-04-27_14h07.01.690,Cued GoNogo Task,2024.2.4,59.996676186768205,2025-04-27 14h07.09.550571 +0200,
block/CondBlock1.xlsx,You are about to start a block of type 1 trials.,55,55,0,Go,Go,0.15,0.2,0.05,space,blue,vertical,space,6.084461899998132,None,space,1,0.3151866000262089,None,,,,0,0,0,0,0,55,55,55,257.28880179999396,,,,,,,,,,,,,,,,257.27323270001216,257.28880179999396,257.9882565999869,257.9882565999869,258.4878434999846,258.4722829000093,258.4730993999983,258.4878434999846,258.63777059997665,258.83757249999326,258.83757249999326,259.1565659000189,space,1,0.3151866000262089,None,259.1608768000151,259.6701738999691,260.66922859998886,260.65343489998486,,,,,,,,,,,,,,,,,001,001,2025-04-27_14h07.01.690,Cued GoNogo Task,2024.2.4,59.996676186768205,2025-04-27 14h07.09.550571 +0200,
block/CondBlock1.xlsx,You are about to start a block of type 1 trials.,56,56,0,Go,Go,0.47,0.2,0.05,space,blue,vertical,space,6.084461899998132,None,space,1,0.33798700000625104,None,,,,0,0,0,0,0,56,56,56,260.66922859998886,,,,,,,,,,,,,,,,260.6536832000129,260.66922859998886,261.36868710001,261.36868710001,261.86858010001015,261.8525691999821,261.8533577999915,261.86858010001015,262.35135050001554,262.53459649998695,262.53459649998695,262.8857116000145,space,1,0.33798700000625104,None,262.8902642999892,263.4006446999847,264.3997204999905,264.38373970001703,,,,,,,,,,,,,,,,,001,001,2025-04-27_14h07.01.690,Cued GoNogo Task,2024.2.4,59.996676186768205,2025-04-27 14h07.09.550571 +0200,
block/CondBlock1.xlsx,You are about to start a block of type 1 trials.,57,57,0,NoGo,NoGo,0.42,0.2,0.05,none,green,vertical,space,6.084461899998132,None,space,0,0.23391970002558082,None,,,,0,0,0,0,0,57,57,57,264.3997204999905,,,,,,,,,,,,,,,,264.38414380000904,264.3997204999905,265.0990029000095,265.0990029000095,265.5987849999801,265.5826675000135,265.5832170000067,265.5987849999801,266.03164569998626,266.2148959999904,266.2148959999904,266.4656294999877,space,0,0.23391970002558082,None,266.4701374999713,266.98097729997244,267.9799578000093,267.9641839999822,,,,,,,,,,,,,,,,,001,001,2025-04-27_14h07.01.690,Cued GoNogo Task,2024.2.4,59.996676186768205,2025-04-27 14h07.09.550571 +0200,
block/CondBlock1.xlsx,You are about to start a block of type 1 trials.,58,58,0,Go,Go,0.22,0.05,0.2,space,green,horizontal,space,6.084461899998132,None,space,1,0.2599695000099018,None,,,,0,0,0,0,0,58,58,58,267.9799578000093,,,,,,,,,,,,,,,,267.9644779000082,267.9799578000093,268.67948759999126,268.67948759999126,269.17894249997335,269.16306940000504,269.16369419998955,269.17894249997335,269.41221919999225,269.5954772999976,269.5954772999976,269.86312429996906,space,1,0.2599695000099018,None,269.8680995000177,270.37812870001653,271.3776651999797,271.3612326000002,,,,,,,,,,,,,,,,,001,001,2025-04-27_14h07.01.690,Cued GoNogo Task,2024.2.4,59.996676186768205,2025-04-27 14h07.09.550571 +0200,
block/CondBlock1.xlsx,You are about to start a block of type 1 trials.,59,59,0,Go,Go,0.3,0.2,0.05,space,blue,vertical,space,6.084461899998132,None,space,1,0.26817430002847686,None,,,,0,0,0,0,0,59,59,59,271.3776651999797,,,,,,,,,,,,,,,,271.3614174000104,271.3776651999797,272.0767515000189,272.0767515000189,272.5761827999959,272.5606027999893,272.5613499999745,272.5761827999959,272.8759113000124,273.0759461999987,273.0759461999987,273.3609034999972,space,1,0.26817430002847686,None,273.3650400000042,273.8750844000024,274.8744230999728,274.85869389999425,,,,,,,,,,,,,,,,,001,001,2025-04-27_14h07.01.690,Cued GoNogo Task,2024.2.4,59.996676186768205,2025-04-27 14h07.09.550571 +0200,
block/CondBlock1.xlsx,You are about to start a block of type 1 trials.,60,60,0,NoGo,NoGo,0.24,0.2,0.05,none,blue,vertical,space,6.084461899998132,None,space,0,0.2699606000096537,None,,,,0,0,0,0,0,60,60,60,274.8744230999728,,,,,,,,,,,,,,,,274.85902580001857,274.8744230999728,275.5737891999888,275.5737891999888,276.07340180000756,276.057678400015,276.0584620999871,276.07340180000756,276.3230046000099,276.50636820000364,276.50636820000364,276.79046799999196,space,0,0.2699606000096537,None,276.7947053000098,277.30574139999226,278.3048428000184,278.2889090999961,,,,,,,,,,,,,,,,,001,001,2025-04-27_14h07.01.690,Cued GoNogo Task,2024.2.4,59.996676186768205,2025-04-27 14h07.09.550571 +0200,
block/CondBlock1.xlsx,You are about to start a block of type 1 trials.,61,61,0,NoGo,NoGo,0.1,0.2,0.05,none,green,vertical,space,6.084461899998132,None,space,0,0.25308250001398847,None,,,,0,0,0,0,0,61,61,61,278.3048428000184,,,,,,,,,,,,,,,,278.2891371999867,278.3048428000184,279.00434340001084,279.00434340001084,279.5038211999927,279.4882310000248,279.4889697000035,279.5038211999927,279.60375379998004,279.8037478000042,279.8037478000042,280.0714050999959,space,0,0.25308250001398847,None,280.0719130000216,280.5863689999678,281.5854814000195,281.5697465999983,,,,,,,,,,,,,,,,,001,001,2025-04-27_14h07.01.690,Cued GoNogo Task,2024.2.4,59.996676186768205,2025-04-27 14h07.09.550571 +0200,
block/CondBlock1.xlsx,You are about to start a block of type 1 trials.,62,62,0,Go,Go,0.45,0.05,0.2,space,blue,horizontal,space,6.084461899998132,None,space,1,0.11071400000946596,None,,,,0,0,0,0,0,62,62,62,281.5854814000195,,,,,,,,,,,,,,,,281.5702950999839,281.5854814000195,282.28505110001424,282.28505110001424,282.784448899969,282.7686400000239,282.7692939999979,282.784448899969,283.23412390000885,283.43394499999704,283.43394499999704,283.5518462000182,space,1,0.11071400000946596,None,283.5563440999831,284.06685290002497,285.06623930000933,285.0501486000139,,,,,,,,,,,,,,,,,001,001,2025-04-27_14h07.01.690,Cued GoNogo Task,2024.2.4,59.996676186768205,2025-04-27 14h07.09.550571 +0200,
block/CondBlock1.xlsx,You are about to start a block of type 1 trials.,63,63,0,Go,Go,0.1,0.05,0.2,space,green,horizontal,space,6.084461899998132,None,space,1,0.22721680003451183,None,,,,0,0,0,0,0,63,63,63,285.06623930000933,,,,,,,,,,,,,,,,285.0504837000044,285.06623930000933,285.7654819000163,285.7654819000163,286.2648264999734,286.2494468999794,286.25031829997897,286.2648264999734,286.36477529996773,286.5647952000145,286.5647952000145,286.7991551000159,space,1,0.22721680003451183,None,286.8026769999997,287.3140909000067,288.3132453999715,288.2976219999837,,,,,,,,,,,,,,,,,001,001,2025-04-27_14h07.01.690,Cued GoNogo Task,2024.2.4,59.996676186768205,2025-04-27 14h07.09.550571 +0200,
block/CondBlock1.xlsx,You are about to start a block of type 1 trials.,64,64,0,Go,Go,0.19,0.05,0.2,space,blue,horizontal,space,6.084461899998132,None,space,1,0.3368662999710068,None,,,,0,0,0,0,0,64,64,64,288.3132453999715,,,,,,,,,,,,,,,,288.298008200014,288.3132453999715,289.01281529996777,289.01281529996777,289.5122794000199,289.4964722999721,289.497137999977,289.5122794000199,289.71228410000913,289.8952545999782,289.8952545999782,290.2459146999754,space,1,0.3368662999710068,None,290.24901720002526,290.7612410999718,291.7602276999969,291.74437590001617,,,,,,,,,,,,,,,,,001,001,2025-04-27_14h07.01.690,Cued GoNogo Task,2024.2.4,59.996676186768205,2025-04-27 14h07.09.550571 +0200,
block/CondBlock1.xlsx,You are about to start a block of type 1 trials.,65,65,0,Go,Go,0.21,0.2,0.05,space,blue,vertical,space,6.084461899998132,None,space,1,0.1611597000155598,None,,,,0,0,0,0,0,65,65,65,291.7602276999969,,,,,,,,,,,,,,,,291.7445755000226,291.7602276999969,292.4598047999898,292.4598047999898,292.95927789999405,292.9433016999974,292.9437537000049,292.95927789999405,293.17578549997415,293.35904910002137,293.35904910002137,293.5264937999891,space,1,0.1611597000155598,None,293.52963359997375,294.04185480001615,295.04094510001596,295.0254060999723,,,,,,,,,,,,,,,,,001,001,2025-04-27_14h07.01.690,Cued GoNogo Task,2024.2.4,59.996676186768205,2025-04-27 14h07.09.550571 +0200,
block/CondBlock1.xlsx,You are about to start a block of type 1 trials.,66,66,0,Go,Go,0.18,0.05,0.2,space,blue,horizontal,space,6.084461899998132,None,space,1,0.23439200001303107,None,,,,0,0,0,0,0,66,66,66,295.04094510001596,,,,,,,,,,,,,,,,295.0258205999853,295.04094510001596,295.7405111999833,295.7405111999833,296.240048800013,296.22391220001737,296.22434720001183,296.240048800013,296.42312920000404,296.6062951000058,296.6062951000058,296.8572289000149,space,1,0.23439200001303107,None,296.86010839999653,297.3724457999924,298.371622000006,298.35561169998255,,,,,,,,,,,,,,,,,001,001,2025-04-27_14h07.01.690,Cued GoNogo Task,2024.2.4,59.996676186768205,2025-04-27 14h07.09.550571 +0200,
block/CondBlock1.xlsx,You are about to start a block of type 1 trials.,67,67,0,Go,Go,0.29,0.2,0.05,space,green,vertical,space,6.084461899998132,None,space,1,0.19552519998978823,None,,,,0,0,0,0,0,67,67,67,298.371622000006,,,,,,,,,,,,,,,,298.35580859996844,298.371622000006,299.07098610000685,299.07098610000685,299.57073819998186,299.5543850000249,299.55480410001474,299.57073819998186,299.8704422999872,300.0534528999706,300.0534528999706,300.2544715999975,space,1,0.19552519998978823,None,300.2573423999711,300.76966410002206,301.76894560002256,301.7528645999846,,,,,,,,,,,,,,,,,001,001,2025-04-27_14h07.01.690,Cued GoNogo Task,2024.2.4,59.996676186768205,2025-04-27 14h07.09.550571 +0200,
block/CondBlock1.xlsx,You are about to start a block of type 1 trials.,68,68,0,NoGo,NoGo,0.24,0.2,0.05,none,blue,vertical,space,6.084461899998132,None,space,0,0.19124350004130974,None,,,,0,0,0,0,0,68,68,68,301.76894560002256,,,,,,,,,,,,,,,,301.7531132000149,301.76894560002256,302.46815999998944,302.46815999998944,302.96790119999787,302.9516224999679,302.95204489998287,302.96790119999787,303.21769169997424,303.40065899997717,303.40065899997717,303.6018246000167,space,0,0.19124350004130974,None,303.6066703000106,304.1171318999841,,305.11622540000826,,,,,,,,,,,,,,,,,001,001,2025-04-27_14h07.01.690,Cued GoNogo Task,2024.2.4,59.996676186768205,2025-04-27 14h07.09.550571 +0200,
block/CondBlock1.xlsx,You are about to start a block of type 1 trials.,69,69,0,Go,Go,0.27,0.05,0.2,space,green,horizontal,space,6.084461899998132,None,space,1,0.11572490003891289,None,,,,0,0,0,0,0,69,69,69,305.1327027999796,,,,,,,,,,,,,,,,305.1164928000071,305.1327027999796,305.8154266999918,305.83198020001873,306.3149947000202,306.2987167999963,306.2991564999684,306.3149947000202,306.5981013000128,306.78129359998275,306.78129359998275,306.89906809997046,space,1,0.11572490003891289,None,306.90219609998167,307.41402000002563,308.41318430000683,308.39711289998377,,,,,,,,,,,,,,,,,001,001,2025-04-27_14h07.01.690,Cued GoNogo Task,2024.2.4,59.996676186768205,2025-04-27 14h07.09.550571 +0200,
block/CondBlock1.xlsx,You are about to start a block of type 1 trials.,70,70,0,Go,Go,0.25,0.2,0.05,space,green,vertical,space,6.084461899998132,None,space,1,0.2258354999939911,None,,,,0,0,0,0,0,70,70,70,308.41318430000683,,,,,,,,,,,,,,,,308.3973970999941,308.41318430000683,309.1126414000173,309.1126414000173,309.6122293000226,309.59596200002125,309.5963258999982,309.6122293000226,309.8620678000152,310.06196379999164,310.06196379999164,310.29661359998863,space,1,0.2258354999939911,None,310.29970660002436,310.81138480000664,311.81054829998175,311.79428919998463,,,,,,,,,,,,,,,,,001,001,2025-04-27_14h07.01.690,Cued GoNogo Task,2024.2.4,59.996676186768205,2025-04-27 14h07.09.550571 +0200,
block/CondBlock1.xlsx,You are about to start a block of type 1 trials.,71,71,0,Go,Go,0.28,0.05,0.2,space,green,horizontal,space,6.084461899998132,None,space,1,0.19707039999775589,None,,,,0,0,0,0,0,71,71,71,311.81054829998175,,,,,,,,,,,,,,,,311.79445940000005,311.81054829998175,312.5098496999708,312.5098496999708,313.0096565000131,312.9937792000128,312.9943769000238,313.0096565000131,313.2928960999707,313.47600819997024,313.47600819997024,313.67709439998725,space,1,0.19707039999775589,None,313.6812230999931,314.19204469997203,315.19143070001155,315.17528949998086,,,,,,,,,,,,,,,,,001,001,2025-04-27_14h07.01.690,Cued GoNogo Task,2024.2.4,59.996676186768205,2025-04-27 14h07.09.550571 +0200,
block/CondBlock1.xlsx,You are about to start a block of type 1 trials.,72,72,0,Go,Go,0.14,0.05,0.2,space,blue,horizontal,space,6.084461899998132,None,space,1,0.09263109997846186,None,,,,0,0,0,0,0,72,72,72,315.19143070001155,,,,,,,,,,,,,,,,315.17568049998954,315.19143070001155,315.8906258000061,315.8906258000061,316.3902348999982,316.37438880000263,316.3751071000006,316.3902348999982,316.5400215999689,316.72327399998903,316.72327399998903,316.82452189998,space,1,0.09263109997846186,None,316.82877580000786,317.3393033000175,318.33851189998677,318.32257050002227,,,,,,,,,,,,,,,,,001,001,2025-04-27_14h07.01.690,Cued GoNogo Task,2024.2.4,59.996676186768205,2025-04-27 14h07.09.550571 +0200,
block/CondBlock1.xlsx,You are about to start a block of type 1 trials.,73,73,0,Go,Go,0.11,0.05,0.2,space,blue,horizontal,space,6.084461899998132,None,space,1,0.2109267000341788,None,,,,0,0,0,0,0,73,73,73,318.33851189998677,,,,,,,,,,,,,,,,318.322949399997,318.33851189998677,319.0380384000018,319.0380384000018,319.537552499969,319.5217416000087,319.52237969997805,319.537552499969,319.65418700000737,319.8374334999826,319.8374334999826,320.05593109998154,space,1,0.2109267000341788,None,320.06122440000763,320.5700085000135,321.569337599969,321.5537311999942,,,,,,,,,,,,,,,,,001,001,2025-04-27_14h07.01.690,Cued GoNogo Task,2024.2.4,59.996676186768205,2025-04-27 14h07.09.550571 +0200,
block/CondBlock1.xlsx,You are about to start a block of type 1 trials.,74,74,0,Go,Go,0.22,0.2,0.05,space,blue,vertical,space,6.084461899998132,None,space,1,0.25552510004490614,None,,,,0,0,0,0,0,74,74,74,321.569337599969,,,,,,,,,,,,,,,,321.5541374000022,321.569337599969,322.2688716999837,322.2688716999837,322.7681804000167,322.7522602999816,322.7528142000083,322.7681804000167,323.00145340000745,323.18462620000355,323.18462620000355,323.4521338000195,space,1,0.25552510004490614,None,323.4547896999866,323.967398400011,324.9665077999816,324.9504353000084,,,,,,,,,,,,,,,,,001,001,2025-04-27_14h07.01.690,Cued GoNogo Task,2024.2.4,59.996676186768205,2025-04-27 14h07.09.550571 +0200,
block/CondBlock1.xlsx,You are about to start a block of type 1 trials.,75,75,0,Go,Go,0.26,0.05,0.2,space,blue,horizontal,space,6.084461899998132,None,space,1,0.1778947000275366,None,,,,0,0,0,0,0,75,75,75,324.9665077999816,,,,,,,,,,,,,,,,324.950742200017,324.9665077999816,325.66604189999634,325.66604189999634,326.1655551000149,326.1499197999947,326.1508388000075,326.1655551000149,326.431966300006,326.6150184000144,326.6150184000144,326.79947640001774,space,1,0.1778947000275366,None,326.80330109997885,327.31484810000984,,328.3139418999781,,,,,,,,,,,,,,,,,001,001,2025-04-27_14h07.01.690,Cued GoNogo Task,2024.2.4,59.996676186768205,2025-04-27 14h07.09.550571 +0200,
block/CondBlock1.xlsx,You are about to start a block of type 1 trials.,76,76,0,Go,Go,0.14,0.2,0.05,space,green,vertical,space,6.084461899998132,None,space,1,0.17942860000766814,None,,,,0,0,0,0,0,76,76,76,328.3303085999796,,,,,,,,,,,,,,,,328.3141881999909,328.3303085999796,329.0131993999821,329.029906700016,329.5129623999819,329.496742599993,329.49737509997794,329.5129623999819,329.6626529999776,329.8457859000191,329.8457859000191,330.03077740001027,space,1,0.17942860000766814,None,330.03550639998866,330.5451746999752,331.54448189999675,331.52862429997185,,,,,,,,,,,,,,,,,001,001,2025-04-27_14h07.01.690,Cued GoNogo Task,2024.2.4,59.996676186768205,2025-04-27 14h07.09.550571 +0200,
block/CondBlock1.xlsx,You are about to start a block of type 1 trials.,77,77,0,Go,Go,0.18,0.05,0.2,space,green,horizontal,space,6.084461899998132,None,space,1,0.2099698999663815,None,,,,0,0,0,0,0,77,77,77,331.54448189999675,,,,,,,,,,,,,,,,331.5289529999718,331.54448189999675,332.24381790001644,332.24381790001644,332.74335339997197,332.72747460001847,332.7281512999907,332.74335339997197,332.9265236000065,333.12633150001056,333.12633150001056,333.3444065999938,space,1,0.2099698999663815,None,333.3507875999785,333.85919039999135,334.8583847999689,334.8426510000136,,,,,,,,,,,,,,,,,001,001,2025-04-27_14h07.01.690,Cued GoNogo Task,2024.2.4,59.996676186768205,2025-04-27 14h07.09.550571 +0200,
block/CondBlock1.xlsx,You are about to start a block of type 1 trials.,78,78,0,NoGo,NoGo,0.27,0.05,0.2,none,blue,horizontal,space,6.084461899998132,None,space,0,0.23680479999165982,None,,,,0,0,0,0,0,78,78,78,334.8583847999689,,,,,,,,,,,,,,,,334.842966599972,334.8583847999689,335.5577542000101,335.5577542000101,336.0573128000251,336.0414517999743,336.041965899989,336.0573128000251,336.34062550001545,336.5236667999998,336.5236667999998,336.7748520000023,space,0,0.23680479999165982,None,336.7832447999972,337.2897860999801,338.2890358999721,338.2729180000024,,,,,,,,,,,,,,,,,001,001,2025-04-27_14h07.01.690,Cued GoNogo Task,2024.2.4,59.996676186768205,2025-04-27 14h07.09.550571 +0200,
block/CondBlock1.xlsx,You are about to start a block of type 1 trials.,79,79,0,NoGo,NoGo,0.26,0.2,0.05,none,blue,vertical,space,6.084461899998132,None,None,1,,,,,,0,0,0,0,0,79,79,79,338.2890358999721,,,,,,,,,,,,,,,,338.27326400001766,338.2890358999721,338.9883679000195,338.9883679000195,339.4879332999699,339.4718753999914,339.47256500000367,339.4879332999699,339.75425409997115,339.93757910002023,339.93757910002023,340.42140009999275,None,1,,,340.42379179998534,340.9366567999823,341.93587460002163,341.92046009999467,340.4370979000232,340.4370979000232,,,,,,,,,,,,,,,001,001,2025-04-27_14h07.01.690,Cued GoNogo Task,2024.2.4,59.996676186768205,2025-04-27 14h07.09.550571 +0200,
block/CondBlock1.xlsx,You are about to start a block of type 1 trials.,80,80,0,Go,Go,0.22,0.2,0.05,space,green,vertical,space,6.084461899998132,None,space,1,0.2887877999455668,None,,,,0,0,0,0,0,80,80,80,341.93587460002163,,,,,,,,,,,,,,,,341.9207897000015,341.93587460002163,342.63525779999327,342.63525779999327,343.13500529999146,343.1190177000244,343.1198593999725,343.13500529999146,343.3679253999726,343.55120410001837,343.55120410001837,343.8525213000248,space,1,0.2887877999455668,None,343.85660290002124,344.3673470999929,,345.3663388999994,,,,,,,,,,,,,,,,,001,001,2025-04-27_14h07.01.690,Cued GoNogo Task,2024.2.4,59.996676186768205,2025-04-27 14h07.09.550571 +0200,
block/CondBlock1.xlsx,You are about to start a block of type 1 trials.,81,81,0,Go,Go,0.5,0.2,0.05,space,green,vertical,space,6.084461899998132,None,space,1,0.28004450001753867,None,,,,0,0,0,0,0,81,81,81,345.3830422000028,,,,,,,,,,,,,,,,345.366640000022,345.3830422000028,346.0658367999713,346.0826201000018,346.56552649999503,346.54945360001875,346.5501387999975,346.56552649999503,347.0652100999723,347.26493980002124,347.26493980002124,347.5493694000179,space,1,0.28004450001753867,None,347.5538988999906,348.0641395999701,349.0632355000125,349.0476286999765,,,,,,,,,,,,,,,,,001,001,2025-04-27_14h07.01.690,Cued GoNogo Task,2024.2.4,59.996676186768205,2025-04-27 14h07.09.550571 +0200,
block/CondBlock1.xlsx,You are about to start a block of type 1 trials.,82,82,0,Go,Go,0.43,0.05,0.2,space,green,horizontal,space,6.084461899998132,None,space,1,0.25701960001606494,None,,,,0,0,0,0,0,82,82,82,349.0632355000125,,,,,,,,,,,,,,,,349.0479145999998,349.0632355000125,349.76272689999314,349.76272689999314,350.2624038999784,350.24634199996945,350.24692800000776,350.2624038999784,350.69529679999687,350.8784641000093,350.8784641000093,351.1459781000158,space,1,0.25701960001606494,None,351.1494135999819,351.66124200000195,352.6604739999748,352.64443689998006,,,,,,,,,,,,,,,,,001,001,2025-04-27_14h07.01.690,Cued GoNogo Task,2024.2.4,59.996676186768205,2025-04-27 14h07.09.550571 +0200,
block/CondBlock1.xlsx,You are about to start a block of type 1 trials.,83,83,0,Go,Go,0.25,0.2,0.05,space,green,vertical,space,6.084461899998132,None,space,1,0.31497639999724925,None,,,,0,0,0,0,0,83,83,83,352.6604739999748,,,,,,,,,,,,,,,,352.6447104999679,352.6604739999748,353.3597609999706,353.3597609999706,353.85932129999856,353.8435491999844,353.8442744999775,353.85932129999856,354.10919089999516,354.30908289999934,354.30908289999934,354.62734439998167,space,1,0.31497639999724925,None,354.6305786999874,355.1416686999728,356.14078790001804,356.1250045999768,,,,,,,,,,,,,,,,,001,001,2025-04-27_14h07.01.690,Cued GoNogo Task,2024.2.4,59.996676186768205,2025-04-27 14h07.09.550571 +0200,
block/CondBlock1.xlsx,You are about to start a block of type 1 trials.,84,84,0,NoGo,NoGo,0.14,0.2,0.05,none,green,vertical,space,6.084461899998132,None,None,1,,,,,,0,0,0,0,0,84,84,84,356.14078790001804,,,,,,,,,,,,,,,,356.1252691000118,356.14078790001804,356.84017739997944,356.84017739997944,357.3398323999718,357.32378829998197,357.3242971000145,357.3398323999718,357.48964749998413,357.67293180001434,357.67293180001434,358.15660430002026,None,1,,,358.1595945999725,358.6720426999964,359.67118900001515,359.6554745999747,358.1724734000163,358.1724734000163,,,,,,,,,,,,,,,001,001,2025-04-27_14h07.01.690,Cued GoNogo Task,2024.2.4,59.996676186768205,2025-04-27 14h07.09.550571 +0200,
block/CondBlock1.xlsx,You are about to start a block of type 1 trials.,85,85,0,Go,Go,0.2,0.05,0.2,space,blue,horizontal,space,6.084461899998132,None,space,1,0.21805919997859746,None,,,,0,0,0,0,0,85,85,85,359.67118900001515,,,,,,,,,,,,,,,,359.6557643999695,359.67118900001515,360.37075180001557,360.37075180001557,360.87028279999504,360.85456980002346,360.85525469999993,360.87028279999504,361.07003920001443,361.2701425999985,361.2701425999985,361.50420309999026,space,1,0.21805919997859746,None,361.5084051999729,362.0193483000039,363.01847810001345,363.00257579999743,,,,,,,,,,,,,,,,,001,001,2025-04-27_14h07.01.690,Cued GoNogo Task,2024.2.4,59.996676186768205,2025-04-27 14h07.09.550571 +0200,
block/CondBlock1.xlsx,You are about to start a block of type 1 trials.,86,86,0,Go,Go,0.16,0.2,0.05,space,blue,vertical,space,6.084461899998132,None,space,1,0.3686845000484027,None,,,,0,0,0,0,0,86,86,86,363.01847810001345,,,,,,,,,,,,,,,,363.00283730000956,363.01847810001345,363.7180572000216,363.7180572000216,364.2174965000013,364.20207210001536,364.20308920001844,364.2174965000013,364.38414510001894,364.56734429998323,364.56734429998323,364.9514641999849,space,1,0.3686845000484027,None,364.95593830000143,365.4663961000042,366.4656476000091,366.45001420000335,,,,,,,,,,,,,,,,,001,001,2025-04-27_14h07.01.690,Cued GoNogo Task,2024.2.4,59.996676186768205,2025-04-27 14h07.09.550571 +0200,
block/CondBlock1.xlsx,You are about to start a block of type 1 trials.,87,87,0,Go,Go,0.41,0.2,0.05,space,green,vertical,space,6.084461899998132,None,space,1,0.3037443999783136,None,,,,0,0,0,0,0,87,87,87,366.4656476000091,,,,,,,,,,,,,,,,366.45046389999334,366.4656476000091,367.1651181000052,367.1651181000052,367.6645056999987,367.64829149999423,367.64875019999454,367.6645056999987,368.08093900000677,368.26426760002505,368.26426760002505,368.58167230000254,space,1,0.3037443999783136,None,368.5851539999712,369.0968663999811,370.09607939998386,370.0799106999766,,,,,,,,,,,,,,,,,001,001,2025-04-27_14h07.01.690,Cued GoNogo Task,2024.2.4,59.996676186768205,2025-04-27 14h07.09.550571 +0200,
block/CondBlock1.xlsx,You are about to start a block of type 1 trials.,88,88,0,NoGo,NoGo,0.15,0.2,0.05,none,green,vertical,space,6.084461899998132,None,space,0,0.28411000000778586,None,,,,0,0,0,0,0,88,88,88,370.09607939998386,,,,,,,,,,,,,,,,370.0803717999952,370.09607939998386,370.7955186999752,370.7955186999752,371.29498309997143,371.2794862000155,371.28037870000117,371.29498309997143,371.4449466000078,371.64473060000455,371.64473060000455,371.94579670001986,space,0,0.28411000000778586,None,371.95246020000195,372.4607516999822,373.45997520000674,373.44456979999086,,,,,,,,,,,,,,,,,001,001,2025-04-27_14h07.01.690,Cued GoNogo Task,2024.2.4,59.996676186768205,2025-04-27 14h07.09.550571 +0200,
block/CondBlock1.xlsx,You are about to start a block of type 1 trials.,89,89,0,Go,Go,0.24,0.05,0.2,space,blue,horizontal,space,6.084461899998132,None,space,1,0.3407885000342503,None,,,,0,0,0,0,0,89,89,89,373.45997520000674,,,,,,,,,,,,,,,,373.44507000001613,373.45997520000674,374.159447300015,374.159447300015,374.65894110000227,374.6429226999753,374.6435576999793,374.65894110000227,374.90866690000985,375.0918746999814,375.0918746999814,375.4427379000117,space,1,0.3407885000342503,None,375.4464535000152,375.95796560001327,376.9570176000125,376.9412211999879,,,,,,,,,,,,,,,,,001,001,2025-04-27_14h07.01.690,Cued GoNogo Task,2024.2.4,59.996676186768205,2025-04-27 14h07.09.550571 +0200,
block/CondBlock1.xlsx,You are about to start a block of type 1 trials.,90,90,0,Go,Go,0.25,0.2,0.05,space,blue,vertical,space,6.084461899998132,None,space,1,0.3068188999895938,None,,,,0,0,0,0,0,90,90,90,376.9570176000125,,,,,,,,,,,,,,,,376.9415586999967,376.9570176000125,377.6566853999975,377.6566853999975,378.155977300019,378.14011620002566,378.1407297999831,378.155977300019,378.4057623000117,378.60589780000737,378.60589780000737,378.923141199979,space,1,0.3068188999895938,None,378.92651020002086,379.43822269997327,380.43753380002454,380.4213699999964,,,,,,,,,,,,,,,,,001,001,2025-04-27_14h07.01.690,Cued GoNogo Task,2024.2.4,59.996676186768205,2025-04-27 14h07.09.550571 +0200,
block/CondBlock1.xlsx,You are about to start a block of type 1 trials.,91,91,0,Go,Go,0.26,0.05,0.2,space,green,horizontal,space,6.084461899998132,None,space,1,0.2737593000056222,None,,,,0,0,0,0,0,91,91,91,380.43753380002454,,,,,,,,,,,,,,,,380.42168129998026,380.43753380002454,381.13691469997866,381.13691469997866,381.6365293000126,381.62051249999786,381.6211566000129,381.6365293000126,381.90297459997237,382.08616840001196,382.08616840001196,382.3706436000066,space,1,0.2737593000056222,None,382.3752906000009,382.88556760002393,383.8846274000243,383.86927939997986,,,,,,,,,,,,,,,,,001,001,2025-04-27_14h07.01.690,Cued GoNogo Task,2024.2.4,59.996676186768205,2025-04-27 14h07.09.550571 +0200,
block/CondBlock1.xlsx,You are about to start a block of type 1 trials.,92,92,0,NoGo,NoGo,0.44,0.2,0.05,none,blue,vertical,space,6.084461899998132,None,space,0,0.22790619998704642,None,,,,0,0,0,0,0,92,92,92,383.8846274000243,,,,,,,,,,,,,,,,383.86969309998676,383.8846274000243,384.58432809996884,384.58432809996884,385.0837081000209,385.0681233999785,385.0690100999782,385.0837081000209,385.5333205999923,385.7165161999874,385.7165161999874,385.9513680000091,space,0,0.22790619998704642,None,385.95799000002444,386.4657732999767,387.46513470000355,387.44943290000083,,,,,,,,,,,,,,,,,001,001,2025-04-27_14h07.01.690,Cued GoNogo Task,2024.2.4,59.996676186768205,2025-04-27 14h07.09.550571 +0200,
block/CondBlock1.xlsx,You are about to start a block of type 1 trials.,93,93,0,Go,Go,0.13,0.2,0.05,space,green,vertical,space,6.084461899998132,None,space,1,0.23511509998934343,None,,,,0,0,0,0,0,93,93,93,387.46513470000355,,,,,,,,,,,,,,,,387.44979919999605,387.46513470000355,388.1645217000041,388.1645217000041,388.66425769997295,388.6486540000187,388.6494653999689,388.66425769997295,388.79720209998777,388.9804317000089,388.9804317000089,389.2316826999886,space,1,0.23511509998934343,None,389.2362928999937,389.7466601000051,390.7462167000049,390.7297088999767,,,,,,,,,,,,,,,,,001,001,2025-04-27_14h07.01.690,Cued GoNogo Task,2024.2.4,59.996676186768205,2025-04-27 14h07.09.550571 +0200,
block/CondBlock1.xlsx,You are about to start a block of type 1 trials.,94,94,0,Go,Go,0.44,0.05,0.2,space,blue,horizontal,space,6.084461899998132,None,space,1,0.27050510002300143,None,,,,0,0,0,0,0,94,94,94,390.7462167000049,,,,,,,,,,,,,,,,390.72998920001555,390.7462167000049,391.4451296000043,391.4619356999756,391.9446714000078,391.92879189999076,391.92936090001604,391.9446714000078,392.3944337000139,392.57757740002126,392.57757740002126,392.8615221999935,space,1,0.27050510002300143,None,392.8655779999681,393.3769510000129,394.3761418000213,394.3602940000128,,,,,,,,,,,,,,,,,001,001,2025-04-27_14h07.01.690,Cued GoNogo Task,2024.2.4,59.996676186768205,2025-04-27 14h07.09.550571 +0200,
block/CondBlock1.xlsx,You are about to start a block of type 1 trials.,95,95,0,Go,Go,0.15,0.2,0.05,space,green,vertical,space,6.084461899998132,None,space,1,0.16447489999700338,None,,,,0,0,0,0,0,95,95,95,394.3761418000213,,,,,,,,,,,,,,,,394.36058799998136,394.3761418000213,395.0756814000197,395.0756814000197,395.5748765000026,395.5590110999765,395.55953739996767,395.5748765000026,395.7250701999874,395.9249229999841,395.9249229999841,396.0928186000092,space,1,0.16447489999700338,None,396.0979456999921,396.60768000001553,397.60670579998987,397.5906912999926,,,,,,,,,,,,,,,,,001,001,2025-04-27_14h07.01.690,Cued GoNogo Task,2024.2.4,59.996676186768205,2025-04-27 14h07.09.550571 +0200,
block/CondBlock1.xlsx,You are about to start a block of type 1 trials.,96,96,0,Go,Go,0.49,0.2,0.05,space,green,vertical,space,6.084461899998132,None,space,1,0.24722429999383166,None,,,,0,0,0,0,0,96,96,96,397.60670579998987,,,,,,,,,,,,,,,,397.5909334999742,397.60670579998987,398.3062819999759,398.3062819999759,398.8056465999689,398.7899338999996,398.7906505999854,398.8056465999689,399.3052644999698,399.488596900017,399.488596900017,399.7395486999885,space,1,0.24722429999383166,None,399.74333819997264,400.25450350000756,401.25369530002354,401.23795119998977,,,,,,,,,,,,,,,,,001,001,2025-04-27_14h07.01.690,Cued GoNogo Task,2024.2.4,59.996676186768205,2025-04-27 14h07.09.550571 +0200,
block/CondBlock1.xlsx,You are about to start a block of type 1 trials.,97,97,0,Go,Go,0.11,0.2,0.05,space,blue,vertical,space,6.084461899998132,None,space,1,0.2720198000315577,None,,,,0,0,0,0,0,97,97,97,401.25369530002354,,,,,,,,,,,,,,,,401.23827979998896,401.25369530002354,401.9533212999813,401.9533212999813,402.45287959999405,402.43694310000865,402.43764630000805,402.45287959999405,402.56929740001215,402.75277630001074,402.75277630001074,403.0366546000005,space,1,0.2720198000315577,None,403.0403639000142,403.55198390001897,,404.55148189998,,,,,,,,,,,,,,,,,001,001,2025-04-27_14h07.01.690,Cued GoNogo Task,2024.2.4,59.996676186768205,2025-04-27 14h07.09.550571 +0200,
block/CondBlock1.xlsx,You are about to start a block of type 1 trials.,98,98,0,Go,Go,0.26,0.05,0.2,space,green,horizontal,space,6.084461899998132,None,space,1,0.23224079998908564,None,,,,0,0,0,0,0,98,98,98,404.5678882999928,,,,,,,,,,,,,,,,404.55192310002167,404.5678882999928,405.2506381999701,405.2670490000164,405.7499753999873,405.7339532999904,405.73449080000864,405.7499753999873,406.0164117999957,406.1998879999737,406.1998879999737,406.43486209999537,space,1,0.23224079998908564,None,406.4387961999746,406.9491207000101,407.94826799997827,407.9321064000251,,,,,,,,,,,,,,,,,001,001,2025-04-27_14h07.01.690,Cued GoNogo Task,2024.2.4,59.996676186768205,2025-04-27 14h07.09.550571 +0200,
block/CondBlock1.xlsx,You are about to start a block of type 1 trials.,99,99,0,Go,Go,0.28,0.05,0.2,space,green,horizontal,space,6.084461899998132,None,space,1,0.06565599999157712,None,,,,0,0,0,0,0,99,99,99,407.94826799997827,,,,,,,,,,,,,,,,407.9323598999763,407.94826799997827,408.64773730002344,408.64773730002344,409.14730730000883,409.13170009996975,409.1325335999718,409.14730730000883,409.43061829998624,409.6300195999793,409.6300195999793,409.6984558000113,space,1,0.06565599999157712,None,409.7027216000133,410.2131802000222,411.2273829000187,411.1967673000181,,,,,,,,,,,,,,,,,001,001,2025-04-27_14h07.01.690,Cued GoNogo Task,2024.2.4,59.996676186768205,2025-04-27 14h07.09.550571 +0200,
block/CondBlock1.xlsx,You are about to start a block of type 1 trials.,0,0,0,,,,,,,,,space,6.084461899998132,None,,,,,space,253.61234950000653,None,0,0,0,0,,,,,,,,,,,,,,,,,,,,,,,,,,,,,,,,,,,,,,,,,,,411.2251560000004,411.2273829000187,411.2273829000187,664.8547040999983,space,253.61234950000653,None,,,,,,,,001,001,2025-04-27_14h07.01.690,Cued GoNogo Task,2024.2.4,59.996676186768205,2025-04-27 14h07.09.550571 +0200,
block/CondBlock2.xlsx,You are about to start a block of type 2 trials.,0,0,0,Go,Go,0.18,0.05,0.2,space,green,horizontal,space,1.4747822000063024,None,space,1,0.20949550002114847,None,,,,0,1,1,1,0,0,0,0,666.3872458999977,,,,,,,,,664.8592243000166,664.8701028000214,664.8701028000214,666.3537582000135,space,1.4747822000063024,None,666.3839735999936,666.3872458999977,667.0690966999973,667.1016755999881,,667.568271600001,667.5692033999949,667.5847336999723,667.7677985000191,667.9344289000146,667.9344289000146,668.1517929999973,space,1,0.20949550002114847,None,668.154898000008,668.6672461999697,669.6663420000114,669.6500905000139,,,,,,,,,,,,,,,,,001,001,2025-04-27_14h07.01.690,Cued GoNogo Task,2024.2.4,59.996676186768205,2025-04-27 14h07.09.550571 +0200,
block/CondBlock2.xlsx,You are about to start a block of type 2 trials.,1,1,0,Go,Go,0.2,0.2,0.05,space,green,vertical,space,1.4747822000063024,None,space,1,0.20026779995532706,None,,,,0,1,1,1,0,1,1,1,669.6663420000114,,,,,,,,,,,,,,,,669.6502907000249,669.6663420000114,670.3658450000221,670.3658450000221,670.8652077000006,670.8495254999725,670.850308299996,670.8652077000006,671.0650603999966,671.265154499968,671.265154499968,671.4827344000223,space,1,0.20026779995532706,None,671.4873589000199,671.9977964999853,672.9970466999803,672.9811581000104,,,,,,,,,,,,,,,,,001,001,2025-04-27_14h07.01.690,Cued GoNogo Task,2024.2.4,59.996676186768205,2025-04-27 14h07.09.550571 +0200,
block/CondBlock2.xlsx,You are about to start a block of type 2 trials.,2,2,0,Go,Go,0.22,0.05,0.2,space,blue,horizontal,space,1.4747822000063024,None,space,1,0.13329389999853447,None,,,,0,1,1,1,0,2,2,2,672.9970466999803,,,,,,,,,,,,,,,,672.9814759999863,672.9970466999803,673.6963621000177,673.6963621000177,674.1959103000117,674.1800014000037,674.180687199987,674.1959103000117,674.4290718999691,674.612270099984,674.612270099984,674.7478450000053,space,1,0.13329389999853447,None,674.7529193999944,675.2616197000025,676.260947200004,676.2449239999987,,,,,,,,,,,,,,,,,001,001,2025-04-27_14h07.01.690,Cued GoNogo Task,2024.2.4,59.996676186768205,2025-04-27 14h07.09.550571 +0200,
block/CondBlock2.xlsx,You are about to start a block of type 2 trials.,3,3,0,Go,Go,0.14,0.05,0.2,space,green,horizontal,space,1.4747822000063024,None,space,1,0.20781449996866286,None,,,,0,1,1,1,0,3,3,3,676.260947200004,,,,,,,,,,,,,,,,676.2451883999747,676.260947200004,676.9601593000116,676.9601593000116,677.4599627999705,677.4443218000233,677.4452929999679,677.4599627999705,677.6098368000239,677.7930887999828,677.7930887999828,678.0108660999686,space,1,0.20781449996866286,None,678.0184502999764,678.5257842999999,679.524687099969,679.508662200009,,,,,,,,,,,,,,,,,001,001,2025-04-27_14h07.01.690,Cued GoNogo Task,2024.2.4,59.996676186768205,2025-04-27 14h07.09.550571 +0200,
block/CondBlock2.xlsx,You are about to start a block of type 2 trials.,4,4,0,Go,Go,0.26,0.05,0.2,space,blue,horizontal,space,1.4747822000063024,None,space,1,0.11486740002874285,None,,,,0,1,1,1,0,4,4,4,679.524687099969,,,,,,,,,,,,,,,,679.5088748999988,679.524687099969,680.224175899988,680.224175899988,680.7238352000131,680.7078691999777,680.7084052999853,680.7238352000131,680.9902503999765,681.1734942999901,681.1734942999901,681.2910430000047,space,1,0.11486740002874285,None,681.2943919000099,681.8064208999858,682.8053277999861,682.7898834000225,,,,,,,,,,,,,,,,,001,001,2025-04-27_14h07.01.690,Cued GoNogo Task,2024.2.4,59.996676186768205,2025-04-27 14h07.09.550571 +0200,
block/CondBlock2.xlsx,You are about to start a block of type 2 trials.,5,5,0,Go,Go,0.1,0.05,0.2,space,blue,horizontal,space,1.4747822000063024,None,space,1,0.18377259996486828,None,,,,0,1,1,1,0,5,5,5,682.8053277999861,,,,,,,,,,,,,,,,682.7901737000211,682.8053277999861,683.5049217999913,683.5049217999913,684.0044997999794,683.9884978000191,683.9890143999946,684.0044997999794,684.1044909000047,684.3042901000008,684.3042901000008,684.5055498000002,space,1,0.18377259996486828,None,684.5100183999748,685.0203076999751,686.0194233999937,686.0035859000054,,,,,,,,,,,,,,,,,001,001,2025-04-27_14h07.01.690,Cued GoNogo Task,2024.2.4,59.996676186768205,2025-04-27 14h07.09.550571 +0200,
block/CondBlock2.xlsx,You are about to start a block of type 2 trials.,6,6,0,NoGo,NoGo,0.3,0.2,0.05,none,green,vertical,space,1.4747822000063024,None,space,0,0.2019154999870807,None,,,,0,1,1,1,0,6,6,6,686.0194233999937,,,,,,,,,,,,,,,,686.0038496999769,686.0194233999937,686.7189979999675,686.7189979999675,687.2184516999987,687.2025944999768,687.2031292999745,687.2184516999987,687.5184354999801,687.7181019000127,687.7181019000127,687.9360823999741,space,0,0.2019154999870807,None,687.9423005999997,688.4508616999956,689.4499945999705,689.4343969000038,,,,,,,,,,,,,,,,,001,001,2025-04-27_14h07.01.690,Cued GoNogo Task,2024.2.4,59.996676186768205,2025-04-27 14h07.09.550571 +0200,
block/CondBlock2.xlsx,You are about to start a block of type 2 trials.,7,7,0,NoGo,NoGo,0.14,0.05,0.2,none,blue,horizontal,space,1.4747822000063024,None,space,0,0.20228840003255755,None,,,,0,1,1,1,0,7,7,7,689.4499945999705,,,,,,,,,,,,,,,,689.4346767999814,689.4499945999705,690.1494778000051,690.1494778000051,690.6490204000147,690.6330784999882,690.6336776000098,690.6490204000147,690.7989361999789,690.9819380000117,690.9819380000117,691.2000706000254,space,0,0.20228840003255755,None,691.2005670000217,691.714957499993,692.7139770999784,692.6979631999857,,,,,,,,,,,,,,,,,001,001,2025-04-27_14h07.01.690,Cued GoNogo Task,2024.2.4,59.996676186768205,2025-04-27 14h07.09.550571 +0200,
block/CondBlock2.xlsx,You are about to start a block of type 2 trials.,8,8,0,Go,Go,0.13,0.2,0.05,space,blue,vertical,space,1.4747822000063024,None,space,1,0.25202439998975024,None,,,,0,1,1,1,0,8,8,8,692.7139770999784,,,,,,,,,,,,,,,,692.6983369999798,692.7139770999784,693.4134457000182,693.4134457000182,693.913075599994,693.8971856000135,693.8979121000157,693.913075599994,694.0463442999753,694.2294738999917,694.2294738999917,694.4975581999752,space,1,0.25202439998975024,None,694.5024958999711,695.012055500003,696.0112891999888,695.9955507999985,,,,,,,,,,,,,,,,,001,001,2025-04-27_14h07.01.690,Cued GoNogo Task,2024.2.4,59.996676186768205,2025-04-27 14h07.09.550571 +0200,
block/CondBlock2.xlsx,You are about to start a block of type 2 trials.,9,9,0,Go,Go,0.43,0.2,0.05,space,green,vertical,space,1.4747822000063024,None,None,0,,,,,,0,1,1,1,0,9,9,9,696.0112891999888,,,,,,,,,,,,,,,,695.9958813000121,696.0112891999888,696.7107146999915,696.7107146999915,697.2101756000193,697.1942472999799,697.1948517999845,697.2101756000193,697.6433060999843,697.8431449999916,697.8431449999916,698.3266392999794,None,0,,,698.3294083999936,698.842347799975,699.8415408000001,699.8256997999852,698.3429015000002,698.3429015000002,,,,,,,,,,,,,,,001,001,2025-04-27_14h07.01.690,Cued GoNogo Task,2024.2.4,59.996676186768205,2025-04-27 14h07.09.550571 +0200,
block/CondBlock2.xlsx,You are about to start a block of type 2 trials.,10,10,0,Go,Go,0.14,0.2,0.05,space,green,vertical,space,1.4747822000063024,None,space,1,0.12217560003045946,None,,,,0,1,1,1,0,10,10,10,699.8415408000001,,,,,,,,,,,,,,,,699.8261379000032,699.8415408000001,700.5408980000066,700.5408980000066,701.0405353999813,701.0247048999881,701.0255092000007,701.0405353999813,701.1901954999776,701.3736623000004,701.3736623000004,701.5081139000249,space,1,0.12217560003045946,None,701.5126730999909,702.022947599995,703.0221205999842,703.0062263999716,,,,,,,,,,,,,,,,,001,001,2025-04-27_14h07.01.690,Cued GoNogo Task,2024.2.4,59.996676186768205,2025-04-27 14h07.09.550571 +0200,
block/CondBlock2.xlsx,You are about to start a block of type 2 trials.,11,11,0,Go,Go,0.27,0.2,0.05,space,green,vertical,space,1.4747822000063024,None,space,1,0.32957110001007095,None,,,,0,1,1,1,0,11,11,11,703.0221205999842,,,,,,,,,,,,,,,,703.0064884999883,703.0221205999842,703.7216639000108,703.7216639000108,704.2213668000186,704.2049730999861,704.205475899973,704.2213668000186,704.5043973000138,704.6874686999945,704.6874686999945,705.0217561000027,space,1,0.32957110001007095,None,705.0249502999941,705.536827599979,706.5358708999702,706.5201006999705,,,,,,,,,,,,,,,,,001,001,2025-04-27_14h07.01.690,Cued GoNogo Task,2024.2.4,59.996676186768205,2025-04-27 14h07.09.550571 +0200,
block/CondBlock2.xlsx,You are about to start a block of type 2 trials.,12,12,0,Go,Go,0.3,0.05,0.2,space,green,horizontal,space,1.4747822000063024,None,space,1,0.20591720001539215,None,,,,0,1,1,1,0,12,12,12,706.5358708999702,,,,,,,,,,,,,,,,706.5207502999692,706.5358708999702,707.2353000000003,707.2353000000003,707.7350166999968,707.7195728999795,707.720372300013,707.7350166999968,708.0346273999894,708.2345680000144,708.2345680000144,708.4523486999678,space,1,0.20591720001539215,None,708.4565733000054,708.9673725999892,709.9663562999922,709.9509285999811,,,,,,,,,,,,,,,,,001,001,2025-04-27_14h07.01.690,Cued GoNogo Task,2024.2.4,59.996676186768205,2025-04-27 14h07.09.550571 +0200,
block/CondBlock2.xlsx,You are about to start a block of type 2 trials.,13,13,0,Go,Go,0.18,0.2,0.05,space,blue,vertical,space,1.4747822000063024,None,space,1,0.19643790001282468,None,,,,0,1,1,1,0,13,13,13,709.9663562999922,,,,,,,,,,,,,,,,709.9512955999817,709.9663562999922,710.6658308000187,710.6658308000187,711.165503199969,711.1498476999695,711.150572100014,711.165503199969,711.3487606999697,711.5318979999865,711.5318979999865,711.7329506999813,space,1,0.19643790001282468,None,711.7363343000179,712.2479303000146,713.2472198000178,713.2309741000063,,,,,,,,,,,,,,,,,001,001,2025-04-27_14h07.01.690,Cued GoNogo Task,2024.2.4,59.996676186768205,2025-04-27 14h07.09.550571 +0200,
block/CondBlock2.xlsx,You are about to start a block of type 2 trials.,14,14,0,Go,Go,0.13,0.2,0.05,space,green,vertical,space,1.4747822000063024,None,space,1,0.1891398000298068,None,,,,0,1,1,1,0,14,14,14,713.2472198000178,,,,,,,,,,,,,,,,713.2312074999791,713.2472198000178,713.9464105999796,713.9464105999796,714.4461207999848,714.4301651999704,714.4308142000227,714.4461207999848,714.5795057999785,714.7625794999767,714.7625794999767,714.9641234999872,space,1,0.1891398000298068,None,714.9674710999825,715.4786162999808,716.4778194000246,716.4616473999922,,,,,,,,,,,,,,,,,001,001,2025-04-27_14h07.01.690,Cued GoNogo Task,2024.2.4,59.996676186768205,2025-04-27 14h07.09.550571 +0200,
block/CondBlock2.xlsx,You are about to start a block of type 2 trials.,15,15,0,Go,Go,0.18,0.2,0.05,space,blue,vertical,space,1.4747822000063024,None,space,1,0.19010159996105358,None,,,,0,1,1,1,0,15,15,15,716.4778194000246,,,,,,,,,,,,,,,,716.4620516999858,716.4778194000246,717.1772191000055,717.1772191000055,717.6766605000012,717.6606730999774,717.6612166999839,717.6766605000012,717.8598658000119,718.0431575999828,718.0431575999828,718.2441115999827,space,1,0.19010159996105358,None,718.2478007000173,718.759333199996,719.7583600999787,719.7423140999745,,,,,,,,,,,,,,,,,001,001,2025-04-27_14h07.01.690,Cued GoNogo Task,2024.2.4,59.996676186768205,2025-04-27 14h07.09.550571 +0200,
block/CondBlock2.xlsx,You are about to start a block of type 2 trials.,16,16,0,Go,Go,0.24,0.2,0.05,space,green,vertical,space,1.4747822000063024,None,space,1,0.2508883000118658,None,,,,0,1,1,1,0,16,16,16,719.7583600999787,,,,,,,,,,,,,,,,719.7425473000039,719.7583600999787,720.4578656000085,720.4578656000085,720.9574343999848,720.9421118000173,720.9430833000224,720.9574343999848,721.2071935000131,721.39045419998,721.39045419998,721.6578630000004,space,1,0.2508883000118658,None,721.6614067999762,722.1731386000174,723.1721977000125,723.1561438000062,,,,,,,,,,,,,,,,,001,001,2025-04-27_14h07.01.690,Cued GoNogo Task,2024.2.4,59.996676186768205,2025-04-27 14h07.09.550571 +0200,
block/CondBlock2.xlsx,You are about to start a block of type 2 trials.,17,17,0,Go,Go,0.26,0.2,0.05,space,blue,vertical,space,1.4747822000063024,None,space,1,0.06771550001576543,None,,,,0,1,1,1,0,17,17,17,723.1721977000125,,,,,,,,,,,,,,,,723.1564207000192,723.1721977000125,723.8716262999806,723.8716262999806,724.3711620999966,724.3554040999734,724.355997000006,724.3711620999966,724.6377371000126,724.8209270000225,724.8209270000225,724.9052566000028,space,1,0.06771550001576543,None,724.9112441000179,725.4205399000202,726.4195582999964,726.4036554999766,,,,,,,,,,,,,,,,,001,001,2025-04-27_14h07.01.690,Cued GoNogo Task,2024.2.4,59.996676186768205,2025-04-27 14h07.09.550571 +0200,
block/CondBlock2.xlsx,You are about to start a block of type 2 trials.,18,18,0,Go,Go,0.1,0.05,0.2,space,blue,horizontal,space,1.4747822000063024,None,space,1,0.16178450000006706,None,,,,0,1,1,1,0,18,18,18,726.4195582999964,,,,,,,,,,,,,,,,726.4039005999803,726.4195582999964,727.1191354999901,727.1191354999901,727.6185368999722,727.6030058999895,727.6039090999984,727.6185368999722,727.7185989000136,727.9182430999936,727.9182430999936,728.0858956999728,space,1,0.16178450000006706,None,728.0902243999881,728.6011527000228,729.6003462999943,729.584183799976,,,,,,,,,,,,,,,,,001,001,2025-04-27_14h07.01.690,Cued GoNogo Task,2024.2.4,59.996676186768205,2025-04-27 14h07.09.550571 +0200,
block/CondBlock2.xlsx,You are about to start a block of type 2 trials.,19,19,0,Go,Go,0.46,0.2,0.05,space,blue,vertical,space,1.4747822000063024,None,space,1,0.3435330999782309,None,,,,0,1,1,1,0,19,19,19,729.6003462999943,,,,,,,,,,,,,,,,729.5843658000231,729.6003462999943,730.299769699981,730.299769699981,730.7991558000213,730.7834397999686,730.7840920999879,730.7991558000213,731.2658151999931,731.4488646999816,731.4488646999816,731.7997914999723,space,1,0.3435330999782309,None,731.8043283000006,732.3147505000234,733.3138906999957,733.2979707000195,,,,,,,,,,,,,,,,,001,001,2025-04-27_14h07.01.690,Cued GoNogo Task,2024.2.4,59.996676186768205,2025-04-27 14h07.09.550571 +0200,
block/CondBlock2.xlsx,You are about to start a block of type 2 trials.,20,20,0,Go,Go,0.3,0.05,0.2,space,blue,horizontal,space,1.4747822000063024,None,space,1,0.09141180000733584,None,,,,0,1,1,1,0,20,20,20,733.3138906999957,,,,,,,,,,,,,,,,733.2982339999871,733.3138906999957,734.0133515999769,734.0133515999769,734.5129387999768,734.4969461999717,734.4976482000202,734.5129387999768,734.8128178999759,735.012474099989,735.012474099989,735.1135703999898,space,1,0.09141180000733584,None,735.1167882999871,735.6288257999695,736.6278228000156,736.6120210000081,,,,,,,,,,,,,,,,,001,001,2025-04-27_14h07.01.690,Cued GoNogo Task,2024.2.4,59.996676186768205,2025-04-27 14h07.09.550571 +0200,
block/CondBlock2.xlsx,You are about to start a block of type 2 trials.,21,21,0,Go,Go,0.23,0.05,0.2,space,green,horizontal,space,1.4747822000063024,None,space,1,0.1567829000414349,None,,,,0,1,1,1,0,21,21,21,736.6278228000156,,,,,,,,,,,,,,,,736.612394900003,736.6278228000156,737.3272079000017,737.3272079000017,737.8268684999784,737.8112100000144,737.8118925999734,737.8268684999784,738.0601954999729,738.2432171999826,738.2432171999826,738.4108080000151,space,1,0.1567829000414349,None,738.4152978999773,738.9261085999897,739.9253042999771,739.9091425000224,,,,,,,,,,,,,,,,,001,001,2025-04-27_14h07.01.690,Cued GoNogo Task,2024.2.4,59.996676186768205,2025-04-27 14h07.09.550571 +0200,
block/CondBlock2.xlsx,You are about to start a block of type 2 trials.,22,22,0,Go,Go,0.19,0.2,0.05,space,green,vertical,space,1.4747822000063024,None,space,1,0.16502779995789751,None,,,,0,1,1,1,0,22,22,22,739.9253042999771,,,,,,,,,,,,,,,,739.9094189999742,739.9253042999771,740.6246136999689,740.6246136999689,741.1240371000022,741.1088172000018,741.1098730000085,741.1240371000022,741.3241890000063,741.5071388999932,741.5071388999932,741.6750441999757,space,1,0.16502779995789751,None,741.6786592999706,742.190001400013,743.18914089998,743.1732198999962,,,,,,,,,,,,,,,,,001,001,2025-04-27_14h07.01.690,Cued GoNogo Task,2024.2.4,59.996676186768205,2025-04-27 14h07.09.550571 +0200,
block/CondBlock2.xlsx,You are about to start a block of type 2 trials.,23,23,0,NoGo,NoGo,0.41,0.2,0.05,none,blue,vertical,space,1.4747822000063024,None,space,0,0.14852809999138117,None,,,,0,1,1,1,0,23,23,23,743.18914089998,,,,,,,,,,,,,,,,743.1734390999773,743.18914089998,743.88848959998,743.88848959998,744.3881365999696,744.3725635000155,744.373556800012,744.3881365999696,744.8046253999928,744.9877348999726,744.9877348999726,745.1393099999987,space,0,0.14852809999138117,None,745.1439003999694,745.6539623999852,746.6529457999859,746.6376240000245,,,,,,,,,,,,,,,,,001,001,2025-04-27_14h07.01.690,Cued GoNogo Task,2024.2.4,59.996676186768205,2025-04-27 14h07.09.550571 +0200,
block/CondBlock2.xlsx,You are about to start a block of type 2 trials.,24,24,0,Go,Go,0.17,0.2,0.05,space,blue,vertical,space,1.4747822000063024,None,space,1,0.126334999979008,None,,,,0,1,1,1,0,24,24,24,746.6529457999859,,,,,,,,,,,,,,,,746.6379328999901,746.6529457999859,747.3524151999736,747.3524151999736,747.8522777999751,747.8361108999816,747.8369168000063,747.8522777999751,748.0352277000202,748.2183599999989,748.2183599999989,748.3527977999765,space,1,0.126334999979008,None,748.3575912999804,748.8680028999806,749.8672702999902,749.851291799976,,,,,,,,,,,,,,,,,001,001,2025-04-27_14h07.01.690,Cued GoNogo Task,2024.2.4,59.996676186768205,2025-04-27 14h07.09.550571 +0200,
block/CondBlock2.xlsx,You are about to start a block of type 2 trials.,25,25,0,Go,Go,0.27,0.05,0.2,space,blue,horizontal,space,1.4747822000063024,None,space,1,0.1961303999996744,None,,,,0,1,1,1,0,25,25,25,749.8672702999902,,,,,,,,,,,,,,,,749.8515786000062,749.8672702999902,750.5665849000216,750.5665849000216,751.0660233999952,751.049934700015,751.0504240000155,751.0660233999952,751.3492781000095,751.5322868999792,751.5322868999792,751.7331264999812,space,1,0.1961303999996744,None,751.7377710000146,752.2483471999876,753.247486200009,753.231925399974,,,,,,,,,,,,,,,,,001,001,2025-04-27_14h07.01.690,Cued GoNogo Task,2024.2.4,59.996676186768205,2025-04-27 14h07.09.550571 +0200,
block/CondBlock2.xlsx,You are about to start a block of type 2 trials.,26,26,0,Go,Go,0.26,0.05,0.2,space,green,horizontal,space,1.4747822000063024,None,space,1,0.20826450001914054,None,,,,0,1,1,1,0,26,26,26,753.247486200009,,,,,,,,,,,,,,,,753.2322397999815,753.247486200009,753.9470669999719,753.9470669999719,754.4466254999861,754.4306926999707,754.4316919000121,754.4466254999861,754.7129456999828,754.8962034999859,754.8962034999859,755.1142598000006,space,1,0.20826450001914054,None,755.1189946000231,755.628948299971,756.6279770999681,756.6125698999967,,,,,,,,,,,,,,,,,001,001,2025-04-27_14h07.01.690,Cued GoNogo Task,2024.2.4,59.996676186768205,2025-04-27 14h07.09.550571 +0200,
block/CondBlock2.xlsx,You are about to start a block of type 2 trials.,27,27,0,Go,Go,0.22,0.2,0.05,space,green,vertical,space,1.4747822000063024,None,space,1,0.18140320002567023,None,,,,0,1,1,1,0,27,27,27,756.6279770999681,,,,,,,,,,,,,,,,756.6128260999685,756.6279770999681,757.3273576999782,757.3273576999782,757.827043599973,757.8108919999795,757.8114105999703,757.827043599973,758.0602514999919,758.2434102999978,758.2434102999978,758.4281911000144,space,1,0.18140320002567023,None,758.4321331999963,758.9428648999892,759.9419496000046,759.9259501000051,,,,,,,,,,,,,,,,,001,001,2025-04-27_14h07.01.690,Cued GoNogo Task,2024.2.4,59.996676186768205,2025-04-27 14h07.09.550571 +0200,
block/CondBlock2.xlsx,You are about to start a block of type 2 trials.,28,28,0,Go,Go,0.19,0.05,0.2,space,blue,horizontal,space,1.4747822000063024,None,space,1,0.043869699991773814,None,,,,0,1,1,1,0,28,28,28,759.9419496000046,,,,,,,,,,,,,,,,759.9262311999919,759.9419496000046,760.6415027999901,760.6415027999901,761.141036999994,761.1248769999947,761.1253973999992,761.141036999994,761.3407977999886,761.5239013999817,761.5239013999817,761.5758282999741,space,1,0.043869699991773814,None,761.5810147000011,762.0903507000185,763.0895365999895,763.0738013000228,,,,,,,,,,,,,,,,,001,001,2025-04-27_14h07.01.690,Cued GoNogo Task,2024.2.4,59.996676186768205,2025-04-27 14h07.09.550571 +0200,
block/CondBlock2.xlsx,You are about to start a block of type 2 trials.,29,29,0,Go,Go,0.18,0.05,0.2,space,blue,horizontal,space,1.4747822000063024,None,space,1,0.14479310001479462,None,,,,0,1,1,1,0,29,29,29,763.0895365999895,,,,,,,,,,,,,,,,763.0740566999884,763.0895365999895,763.7889421000145,763.7889421000145,764.2884774999693,764.2729572000098,764.2738070000196,764.2884774999693,764.4716708000051,764.6717326000216,764.6717326000216,764.8227795999846,space,1,0.14479310001479462,None,764.827762699977,765.3373914000113,766.3367776999949,766.3206289000227,,,,,,,,,,,,,,,,,001,001,2025-04-27_14h07.01.690,Cued GoNogo Task,2024.2.4,59.996676186768205,2025-04-27 14h07.09.550571 +0200,
block/CondBlock2.xlsx,You are about to start a block of type 2 trials.,30,30,0,NoGo,NoGo,0.23,0.2,0.05,none,blue,vertical,space,1.4747822000063024,None,space,0,0.12028380000265315,None,,,,0,1,1,1,0,30,30,30,766.3367776999949,,,,,,,,,,,,,,,,766.320823099988,766.3367776999949,767.0360714999842,767.0360714999842,767.5357636999688,767.519946800021,767.5205637000035,767.5357636999688,767.769182100019,767.9521363999811,767.9521363999811,768.086352000013,space,0,0.12028380000265315,None,768.091754299996,768.6017139999894,769.6009188999888,769.585237500025,,,,,,,,,,,,,,,,,001,001,2025-04-27_14h07.01.690,Cued GoNogo Task,2024.2.4,59.996676186768205,2025-04-27 14h07.09.550571 +0200,
block/CondBlock2.xlsx,You are about to start a block of type 2 trials.,31,31,0,Go,Go,0.43,0.2,0.05,space,green,vertical,space,1.4747822000063024,None,None,0,,,,,,0,1,1,1,0,31,31,31,769.6009188999888,,,,,,,,,,,,,,,,769.5856626000023,769.6009188999888,770.3001775000012,770.3001775000012,770.7997804000042,770.7835378000163,770.78409869998,770.7997804000042,771.2328688999987,771.4159087999724,771.4159087999724,771.9000818000059,None,0,,,771.9035996000166,772.4150106000016,773.4143523999956,773.3983725999715,771.9155183999683,771.9155183999683,,,,,,,,,,,,,,,001,001,2025-04-27_14h07.01.690,Cued GoNogo Task,2024.2.4,59.996676186768205,2025-04-27 14h07.09.550571 +0200,
block/CondBlock2.xlsx,You are about to start a block of type 2 trials.,32,32,0,Go,Go,0.13,0.05,0.2,space,blue,horizontal,space,1.4747822000063024,None,space,1,0.19967990001896396,None,,,,0,1,1,1,0,32,32,32,773.4143523999956,,,,,,,,,,,,,,,,773.3985728999833,773.4143523999956,774.1137441999745,774.1137441999745,774.6134497000021,774.5976088999887,774.5983040999854,774.6134497000021,774.7465188999777,774.9297084999853,774.9297084999853,775.1323188000242,space,1,0.19967990001896396,None,775.1367212000187,775.6459491999703,776.6449151000124,776.6291352999979,,,,,,,,,,,,,,,,,001,001,2025-04-27_14h07.01.690,Cued GoNogo Task,2024.2.4,59.996676186768205,2025-04-27 14h07.09.550571 +0200,
block/CondBlock2.xlsx,You are about to start a block of type 2 trials.,33,33,0,Go,Go,0.45,0.05,0.2,space,green,horizontal,space,1.4747822000063024,None,space,1,0.22685900004580617,None,,,,0,1,1,1,0,33,33,33,776.6449151000124,,,,,,,,,,,,,,,,776.6294572000043,776.6449151000124,777.3442519999808,777.3442519999808,777.8440311999875,777.8278683000244,777.828447900014,777.8440311999875,778.2935229999712,778.4932911000215,778.4932911000215,778.7275978000253,space,1,0.22685900004580617,None,778.7304330000188,779.2428438999923,780.2418730999925,780.2259646999883,,,,,,,,,,,,,,,,,001,001,2025-04-27_14h07.01.690,Cued GoNogo Task,2024.2.4,59.996676186768205,2025-04-27 14h07.09.550571 +0200,
block/CondBlock2.xlsx,You are about to start a block of type 2 trials.,34,34,0,Go,Go,0.14,0.2,0.05,space,blue,vertical,space,1.4747822000063024,None,space,1,0.15462899999693036,None,,,,0,1,1,1,0,34,34,34,780.2418730999925,,,,,,,,,,,,,,,,780.2263960000128,780.2418730999925,780.9413125999854,780.9413125999854,781.4410203999723,781.4254115999793,781.4268810999929,781.4410203999723,781.5910075000138,781.7741680999752,781.7741680999752,781.9416717999848,space,1,0.15462899999693036,None,781.9449885999784,782.456941100012,,783.4562377000111,,,,,,,,,,,,,,,,,001,001,2025-04-27_14h07.01.690,Cued GoNogo Task,2024.2.4,59.996676186768205,2025-04-27 14h07.09.550571 +0200,
block/CondBlock2.xlsx,You are about to start a block of type 2 trials.,35,35,0,Go,Go,0.11,0.2,0.05,space,blue,vertical,space,1.4747822000063024,None,space,1,0.1172876000055112,None,,,,0,1,1,1,0,35,35,35,783.472746799991,,,,,,,,,,,,,,,,783.4565329999896,783.472746799991,784.1554030000116,784.1722647999995,784.6549136000103,784.6390121000004,784.639564800018,784.6549136000103,784.7715497000027,784.9548385000089,784.9548385000089,785.089424500009,space,1,0.1172876000055112,None,785.0943671999848,785.6042101000203,786.6035176999867,786.5875572999939,,,,,,,,,,,,,,,,,001,001,2025-04-27_14h07.01.690,Cued GoNogo Task,2024.2.4,59.996676186768205,2025-04-27 14h07.09.550571 +0200,
block/CondBlock2.xlsx,You are about to start a block of type 2 trials.,36,36,0,Go,Go,0.15,0.05,0.2,space,green,horizontal,space,1.4747822000063024,None,space,1,0.23171330004697666,None,,,,0,1,1,1,0,36,36,36,786.6035176999867,,,,,,,,,,,,,,,,786.5878549999907,786.6035176999867,787.3028852000134,787.3028852000134,787.8024759999826,787.7867523999885,787.7874858999858,787.8024759999826,787.9522950000246,788.1522026999737,788.1522026999737,788.3869819000247,space,1,0.23171330004697666,None,788.3918128000223,788.9018240000005,789.9007743999828,789.8850792999729,,,,,,,,,,,,,,,,,001,001,2025-04-27_14h07.01.690,Cued GoNogo Task,2024.2.4,59.996676186768205,2025-04-27 14h07.09.550571 +0200,
block/CondBlock2.xlsx,You are about to start a block of type 2 trials.,37,37,0,Go,Go,0.15,0.2,0.05,space,green,vertical,space,1.4747822000063024,None,space,1,0.31123230000957847,None,,,,0,1,1,1,0,37,37,37,789.9007743999828,,,,,,,,,,,,,,,,789.885493299982,789.9007743999828,790.6002932999982,790.6002932999982,791.0996022999752,791.083698100003,791.0842674999731,791.0996022999752,791.2498248000047,791.4494579000166,791.4494579000166,791.7671735999756,space,1,0.31123230000957847,None,791.7735326999682,792.2821845000144,793.2811236999696,793.2654941999936,,,,,,,,,,,,,,,,,001,001,2025-04-27_14h07.01.690,Cued GoNogo Task,2024.2.4,59.996676186768205,2025-04-27 14h07.09.550571 +0200,
block/CondBlock2.xlsx,You are about to start a block of type 2 trials.,38,38,0,NoGo,NoGo,0.14,0.2,0.05,none,green,vertical,space,1.4747822000063024,None,space,0,0.22721959999762475,None,,,,0,1,1,1,0,38,38,38,793.2811236999696,,,,,,,,,,,,,,,,793.2657722000149,793.2811236999696,793.980719299987,793.980719299987,794.4803033000208,794.4643551000045,794.4650679000188,794.4803033000208,794.6302115999861,794.8133855999913,794.8133855999913,795.0478977999883,space,0,0.22721959999762475,None,795.0525610999903,795.563009799982,796.5619185999967,796.5464393000002,,,,,,,,,,,,,,,,,001,001,2025-04-27_14h07.01.690,Cued GoNogo Task,2024.2.4,59.996676186768205,2025-04-27 14h07.09.550571 +0200,
block/CondBlock2.xlsx,You are about to start a block of type 2 trials.,39,39,0,Go,Go,0.46,0.2,0.05,space,green,vertical,space,1.4747822000063024,None,space,1,0.10184799996204674,None,,,,0,1,1,1,0,39,39,39,796.5619185999967,,,,,,,,,,,,,,,,796.5467819999903,796.5619185999967,797.2614344999893,797.2614344999893,797.7609546000022,797.7448379999842,797.7453758000047,797.7609546000022,798.2271828000084,798.4103596999776,798.4103596999776,798.5281740999781,space,1,0.10184799996204674,None,798.5321568999789,799.0434449000168,,800.0425001999829,,,,,,,,,,,,,,,,,001,001,2025-04-27_14h07.01.690,Cued GoNogo Task,2024.2.4,59.996676186768205,2025-04-27 14h07.09.550571 +0200,
block/CondBlock2.xlsx,You are about to start a block of type 2 trials.,40,40,0,Go,Go,0.5,0.05,0.2,space,blue,horizontal,space,1.4747822000063024,None,space,1,0.12325789994793013,None,,,,0,1,1,1,0,40,40,40,800.0587891999749,,,,,,,,,,,,,,,,800.0427677999833,800.0587891999749,800.7419050000026,800.7586216999916,801.2414143999922,801.2257620000164,801.2265174000058,801.2414143999922,801.7409029999981,801.9409146999824,801.9409146999824,802.0751823000028,space,1,0.12325789994793013,None,802.0791266000015,802.5903094999958,803.5893564000144,803.5735107000219,,,,,,,,,,,,,,,,,001,001,2025-04-27_14h07.01.690,Cued GoNogo Task,2024.2.4,59.996676186768205,2025-04-27 14h07.09.550571 +0200,
block/CondBlock2.xlsx,You are about to start a block of type 2 trials.,41,41,0,Go,Go,0.16,0.05,0.2,space,green,horizontal,space,1.4747822000063024,None,space,1,0.18992730003083125,None,,,,0,1,1,1,0,41,41,41,803.5893564000144,,,,,,,,,,,,,,,,803.5737923000124,803.5893564000144,804.2890921999933,804.2890921999933,804.7885423999978,804.7726433000062,804.7736233000178,804.7885423999978,804.9548763000057,805.138237999985,805.138237999985,805.3390980999684,space,1,0.18992730003083125,None,805.3426496000029,805.8543178000255,806.8535962000024,806.8375467999722,,,,,,,,,,,,,,,,,001,001,2025-04-27_14h07.01.690,Cued GoNogo Task,2024.2.4,59.996676186768205,2025-04-27 14h07.09.550571 +0200,
