Block,blockMsg,thisN,thisTrialN,thisRepN,CueType,StimType,CueTime,Stim_Height,Stim_Width,CRESP,Color,Orientation,key_resp_2.keys,key_resp_2.rt,key_resp_2.duration,Key_Resp.keys,Key_Resp.corr,Key_Resp.rt,Key_Resp.duration,key_resp_3.keys,key_resp_3.rt,key_resp_3.duration,Blocks.thisRepN,Blocks.thisTrialN,Blocks.thisN,Blocks.thisIndex,Trials.thisRepN,Trials.thisTrialN,Trials.thisN,Trials.thisIndex,thisRow.t,notes,TaskIntro.started,fixation.started,key_resp.started,TaskIntro.stopped,key_resp.keys,key_resp.rt,key_resp.duration,BlockStart.started,BlockStart_Msg.started,key_resp_2.started,BlockStart.stopped,Blocks.key_resp_2.keys,Blocks.key_resp_2.rt,Blocks.key_resp_2.duration,Fixation.started,FixationPhase.started,Blank.started,FixationPhase.stopped,Blank.stopped,Fixation.stopped,Trial.started,Cue.started,Cue.stopped,GoNogo_Stim.started,Key_Resp.started,Trial.stopped,Trials.Key_Resp.keys,Trials.Key_Resp.corr,Trials.Key_Resp.rt,Trials.Key_Resp.duration,Feedback.started,Feedback_Present.started,Feedback_Present.stopped,Feedback.stopped,GoNogo_Stim.stopped,Key_Resp.stopped,BlockEnd.started,BlockEnd_Msg.started,key_resp_3.started,BlockEnd.stopped,Blocks.key_resp_3.keys,Blocks.key_resp_3.rt,Blocks.key_resp_3.duration,TaskEnd.started,ThankYou.started,key_resp_4.started,TaskEnd.stopped,key_resp_4.keys,key_resp_4.rt,key_resp_4.duration,participant,session,date,expName,psychopyVersion,frameRate,expStart,
,,,,,,,,,,,,,,,,,,,,,,,,,,,,,,,,,0.0016878999886102974,0.00433219998376444,0.00433219998376444,37.164107499993406,space,37.15803120000055,None,,,,,,,,,,,,,,,,,,,,,,,,,,,,,,,,,,,,,,,,,,,,003b,001,2025-04-26_18h29.09.565,Cued GoNogo Task,2024.2.4,60.01547198771554,2025-04-26 18h29.16.458088 +0200,
block/CondBlock1.xlsx,You are about to start a block of type 1 trials.,0,0,0,Go,Go,0.13,0.05,0.2,space,blue,horizontal,space,3.6961850999796297,None,space,1,0.4130977000168059,None,,,,0,0,0,0,0,0,0,0,40.96913699997822,,,,,,,,,37.1761550999945,37.1792637000035,37.1792637000035,40.880771500000264,space,3.6961850999796297,None,40.96655679997639,40.96913699997822,41.59630489998381,41.679542600002605,42.096381899988046,42.08026779998909,42.08125369998743,42.096381899988046,42.229779899993446,42.41308619998745,42.41308619998745,42.8311375999765,space,1,0.4130977000168059,None,42.84226689999923,43.34620420000283,44.34630069998093,44.33053499998641,,,,,,,,,,,,,,,,,003b,001,2025-04-26_18h29.09.565,Cued GoNogo Task,2024.2.4,60.01547198771554,2025-04-26 18h29.16.458088 +0200,
block/CondBlock1.xlsx,You are about to start a block of type 1 trials.,1,1,0,NoGo,NoGo,0.43,0.05,0.2,none,blue,horizontal,space,3.6961850999796297,None,None,1,,,,,,0,0,0,0,0,1,1,1,44.34630069998093,,,,,,,,,,,,,,,,44.330830899998546,44.34630069998093,45.046261099982075,45.046261099982075,45.54625029998715,45.53023479998228,45.53096989999176,45.54625029998715,45.97957889997633,46.16305289999582,46.16305289999582,46.64684999999008,None,1,,,46.64957469998626,47.14605579999625,48.14632869997877,48.130531499977224,46.66276039998047,46.66276039998047,,,,,,,,,,,,,,,003b,001,2025-04-26_18h29.09.565,Cued GoNogo Task,2024.2.4,60.01547198771554,2025-04-26 18h29.16.458088 +0200,
block/CondBlock1.xlsx,You are about to start a block of type 1 trials.,2,2,0,Go,Go,0.12,0.2,0.05,space,blue,vertical,space,3.6961850999796297,None,space,1,0.37824589997762814,None,,,,0,0,0,0,0,2,2,2,48.14632869997877,,,,,,,,,,,,,,,,48.1309030999837,48.14632869997877,48.846268399996916,48.846268399996916,49.346103799995035,49.33025359999738,49.330987900000764,49.346103799995035,49.47963950000121,49.67947390000336,49.67947390000336,50.06409669999266,space,1,0.37824589997762814,None,50.068809099990176,50.56311149999965,51.56311149999965,51.54736229998525,,,,,,,,,,,,,,,,,003b,001,2025-04-26_18h29.09.565,Cued GoNogo Task,2024.2.4,60.01547198771554,2025-04-26 18h29.16.458088 +0200,
block/CondBlock1.xlsx,You are about to start a block of type 1 trials.,3,3,0,NoGo,NoGo,0.18,0.2,0.05,none,green,vertical,space,3.6961850999796297,None,None,1,,,,,,0,0,0,0,0,3,3,3,51.56311149999965,,,,,,,,,,,,,,,,51.547830700001214,51.579569399997126,52.2796903999988,52.2796903999988,52.77959339998779,52.763442499999655,52.76388240000233,52.77959339998779,52.96286329999566,53.146170599997276,53.146170599997276,53.630168999981834,None,1,,,53.63258019997738,54.12947399998666,55.12963479998871,55.113914699992165,53.646402599988505,53.646402599988505,,,,,,,,,,,,,,,003b,001,2025-04-26_18h29.09.565,Cued GoNogo Task,2024.2.4,60.01547198771554,2025-04-26 18h29.16.458088 +0200,
block/CondBlock1.xlsx,You are about to start a block of type 1 trials.,4,4,0,Go,Go,0.24,0.05,0.2,space,green,horizontal,space,3.6961850999796297,None,space,1,0.3030247999995481,None,,,,0,0,0,0,0,4,4,4,55.12963479998871,,,,,,,,,,,,,,,,55.11430169999949,55.12963479998871,55.829560599988326,55.829560599988326,56.32976689998759,56.314038499986054,56.31502690000343,56.32976689998759,56.57955589998164,56.77975669997977,56.77975669997977,57.09791349997977,space,1,0.3030247999995481,None,57.10360760000185,57.612785999983316,58.61293019997538,58.59664909998537,,,,,,,,,,,,,,,,,003b,001,2025-04-26_18h29.09.565,Cued GoNogo Task,2024.2.4,60.01547198771554,2025-04-26 18h29.16.458088 +0200,
block/CondBlock1.xlsx,You are about to start a block of type 1 trials.,5,5,0,Go,Go,0.21,0.05,0.2,space,blue,horizontal,space,3.6961850999796297,None,space,1,0.26188139998703264,None,,,,0,0,0,0,0,5,5,5,58.61293019997538,,,,,,,,,,,,,,,,58.59681039999123,58.61293019997538,59.31284629998845,59.31284629998845,59.81295599997975,59.79705689998809,59.79778510000324,59.81295599997975,60.02965989999939,60.213004499993986,60.213004499993986,60.48078209999949,space,1,0.26188139998703264,None,60.48668760000146,60.9963208999834,61.996267699985765,61.98029899998801,,,,,,,,,,,,,,,,,003b,001,2025-04-26_18h29.09.565,Cued GoNogo Task,2024.2.4,60.01547198771554,2025-04-26 18h29.16.458088 +0200,
block/CondBlock1.xlsx,You are about to start a block of type 1 trials.,6,6,0,Go,Go,0.11,0.2,0.05,space,blue,vertical,space,3.6961850999796297,None,space,1,0.1301425000128802,None,,,,0,0,0,0,0,6,6,6,61.996267699985765,,,,,,,,,,,,,,,,61.980569299979834,61.996267699985765,62.696300399984466,62.696300399984466,63.19625290000113,63.18029540000134,63.18086019999464,63.19625290000113,63.31287509997492,63.49642799998401,63.49642799998401,63.630879299977096,space,1,0.1301425000128802,None,63.6344667999947,64.14619499997934,65.14621690000058,65.13043639998068,,,,,,,,,,,,,,,,,003b,001,2025-04-26_18h29.09.565,Cued GoNogo Task,2024.2.4,60.01547198771554,2025-04-26 18h29.16.458088 +0200,
block/CondBlock1.xlsx,You are about to start a block of type 1 trials.,7,7,0,Go,Go,0.15,0.2,0.05,space,blue,vertical,space,3.6961850999796297,None,space,1,0.1624110999982804,None,,,,0,0,0,0,0,7,7,7,65.14621690000058,,,,,,,,,,,,,,,,65.13084070000332,65.14621690000058,65.84625010000309,65.84625010000309,66.34629409998888,66.33051259999047,66.33132149997982,66.34629409998888,66.49628309998661,66.69633690000046,66.69633690000046,66.86425969999982,space,1,0.1624110999982804,None,66.8681990999903,67.37963149999268,68.37965580000309,68.36414900000091,,,,,,,,,,,,,,,,,003b,001,2025-04-26_18h29.09.565,Cued GoNogo Task,2024.2.4,60.01547198771554,2025-04-26 18h29.16.458088 +0200,
block/CondBlock1.xlsx,You are about to start a block of type 1 trials.,8,8,0,NoGo,NoGo,0.3,0.05,0.2,none,blue,horizontal,space,3.6961850999796297,None,None,1,,,,,,0,0,0,0,0,8,8,8,68.37965580000309,,,,,,,,,,,,,,,,68.36455709999427,68.37965580000309,69.07953769998858,69.07953769998858,69.5796074999962,69.56378850000328,69.5645485999994,69.5796074999962,69.87963589999708,70.0796612999984,70.0796612999984,70.56348879999132,None,1,,,70.56554359997972,71.06288879999192,72.06286179999006,72.04674259998137,70.57979779999005,70.57979779999005,,,,,,,,,,,,,,,003b,001,2025-04-26_18h29.09.565,Cued GoNogo Task,2024.2.4,60.01547198771554,2025-04-26 18h29.16.458088 +0200,
block/CondBlock1.xlsx,You are about to start a block of type 1 trials.,9,9,0,NoGo,NoGo,0.17,0.05,0.2,none,blue,horizontal,space,3.6961850999796297,None,None,1,,,,,,0,0,0,0,0,9,9,9,72.06286179999006,,,,,,,,,,,,,,,,72.04695859999629,72.06286179999006,72.76301840000087,72.76301840000087,73.26285699999426,73.24734919998446,73.24813100000028,73.26285699999426,73.44622559999698,73.64618549999432,73.64618549999432,74.13036939999438,None,1,,,74.13086409997777,74.62964849997661,75.62981079999008,75.61373059998732,74.14629479998257,74.14629479998257,,,,,,,,,,,,,,,003b,001,2025-04-26_18h29.09.565,Cued GoNogo Task,2024.2.4,60.01547198771554,2025-04-26 18h29.16.458088 +0200,
block/CondBlock1.xlsx,You are about to start a block of type 1 trials.,10,10,0,NoGo,NoGo,0.26,0.2,0.05,none,green,vertical,space,3.6961850999796297,None,None,1,,,,,,0,0,0,0,0,10,10,10,75.62981079999008,,,,,,,,,,,,,,,,75.6140607999987,75.62981079999008,76.32971489999909,76.32971489999909,76.8295784999791,76.81350150000071,76.81410699998378,76.8295784999791,77.0963268999767,77.29628429998411,77.29628429998411,77.78037189997849,None,1,,,77.78091419997509,78.27955129998736,79.27971259999322,79.263432799984,77.79624669998884,77.79624669998884,,,,,,,,,,,,,,,003b,001,2025-04-26_18h29.09.565,Cued GoNogo Task,2024.2.4,60.01547198771554,2025-04-26 18h29.16.458088 +0200,
block/CondBlock1.xlsx,You are about to start a block of type 1 trials.,11,11,0,Go,Go,0.27,0.05,0.2,space,green,horizontal,space,3.6961850999796297,None,space,1,0.39060139999492094,None,,,,0,0,0,0,0,11,11,11,79.27971259999322,,,,,,,,,,,,,,,,79.26370039998437,79.27971259999322,79.97957969998242,79.97957969998242,80.479516899999,80.46380800000043,80.46457529999316,80.479516899999,80.76294570000027,80.96298240000033,80.96298240000033,81.36404249997577,space,1,0.39060139999492094,None,81.36931979999645,81.87956039997516,82.87957639998058,82.86354829999618,,,,,,,,,,,,,,,,,003b,001,2025-04-26_18h29.09.565,Cued GoNogo Task,2024.2.4,60.01547198771554,2025-04-26 18h29.16.458088 +0200,
block/CondBlock1.xlsx,You are about to start a block of type 1 trials.,12,12,0,Go,Go,0.16,0.2,0.05,space,green,vertical,space,3.6961850999796297,None,space,1,0.29988599999342114,None,,,,0,0,0,0,0,12,12,12,82.87957639998058,,,,,,,,,,,,,,,,82.86378339998191,82.87957639998058,83.56289109998033,83.57980269999825,84.06297599998652,84.04702199998428,84.0476322999748,84.07954759997665,84.24615779999294,84.42971430000034,84.42971430000034,84.7319545999926,space,1,0.29988599999342114,None,84.73591109999688,85.24622549998458,86.24633609998273,86.23046669998439,,,,,,,,,,,,,,,,,003b,001,2025-04-26_18h29.09.565,Cued GoNogo Task,2024.2.4,60.01547198771554,2025-04-26 18h29.16.458088 +0200,
block/CondBlock1.xlsx,You are about to start a block of type 1 trials.,13,13,0,Go,Go,0.13,0.2,0.05,space,green,vertical,space,3.6961850999796297,None,space,1,0.32678350000060163,None,,,,0,0,0,0,0,13,13,13,86.24633609998273,,,,,,,,,,,,,,,,86.23073139999178,86.24633609998273,86.9461253999907,86.9461253999907,87.44632279998041,87.43041279999306,87.43114069997682,87.44632279998041,87.57950739999069,87.76299769998877,87.76299769998877,88.09738539997488,space,1,0.32678350000060163,None,88.10076629999094,88.61294169997564,89.61291949998122,89.59701529997983,,,,,,,,,,,,,,,,,003b,001,2025-04-26_18h29.09.565,Cued GoNogo Task,2024.2.4,60.01547198771554,2025-04-26 18h29.16.458088 +0200,
block/CondBlock1.xlsx,You are about to start a block of type 1 trials.,14,14,0,Go,Go,0.12,0.05,0.2,space,blue,horizontal,space,3.6961850999796297,None,space,1,0.3363346999976784,None,,,,0,0,0,0,0,14,14,14,89.61291949998122,,,,,,,,,,,,,,,,89.59737609999138,89.61291949998122,90.3128999999899,90.3128999999899,90.81291459998465,90.79675719997613,90.79736060000141,90.81291459998465,90.94620099998428,91.12975749999168,91.12975749999168,91.4807998999895,space,1,0.3363346999976784,None,91.48468120000325,91.99633819999872,92.99637799998163,92.98053639999125,,,,,,,,,,,,,,,,,003b,001,2025-04-26_18h29.09.565,Cued GoNogo Task,2024.2.4,60.01547198771554,2025-04-26 18h29.16.458088 +0200,
block/CondBlock1.xlsx,You are about to start a block of type 1 trials.,15,15,0,Go,Go,0.45,0.2,0.05,space,blue,vertical,space,3.6961850999796297,None,space,1,0.33246029997826554,None,,,,0,0,0,0,0,15,15,15,92.99637799998163,,,,,,,,,,,,,,,,92.98086169999442,92.99637799998163,93.69628599999123,93.69628599999123,94.19620119998581,94.18036499997834,94.18099139997503,94.19620119998581,94.64631969999755,94.84654689999297,94.84654689999297,95.18183489999501,space,1,0.33246029997826554,None,95.18582329998026,95.69635369998286,96.69617209999706,96.68045970000094,,,,,,,,,,,,,,,,,003b,001,2025-04-26_18h29.09.565,Cued GoNogo Task,2024.2.4,60.01547198771554,2025-04-26 18h29.16.458088 +0200,
block/CondBlock1.xlsx,You are about to start a block of type 1 trials.,16,16,0,NoGo,NoGo,0.14,0.2,0.05,none,green,vertical,space,3.6961850999796297,None,space,0,0.2613841999846045,None,,,,0,0,0,0,0,16,16,16,96.69617209999706,,,,,,,,,,,,,,,,96.68072159998701,96.69617209999706,97.39629469998181,97.39629469998181,97.89640459997463,97.8803149999876,97.88089010000112,97.89640459997463,98.04633519999334,98.22958009998547,98.22958009998547,98.49757639999734,space,0,0.2613841999846045,None,98.50605679998989,99.0129564999952,100.01299119999749,99.99741109999013,,,,,,,,,,,,,,,,,003b,001,2025-04-26_18h29.09.565,Cued GoNogo Task,2024.2.4,60.01547198771554,2025-04-26 18h29.16.458088 +0200,
block/CondBlock1.xlsx,You are about to start a block of type 1 trials.,17,17,0,Go,Go,0.12,0.05,0.2,space,green,horizontal,space,3.6961850999796297,None,space,1,0.40039229998365045,None,,,,0,0,0,0,0,17,17,17,100.01299119999749,,,,,,,,,,,,,,,,99.9978310999868,100.01299119999749,100.71318389999215,100.71318389999215,101.21293739997782,101.19714679999743,101.19785299999057,101.21293739997782,101.34635629999684,101.52967570000328,101.52967570000328,101.93242499997723,space,1,0.40039229998365045,None,101.93689849998918,102.4462327999936,103.44623159998446,103.43020499998238,,,,,,,,,,,,,,,,,003b,001,2025-04-26_18h29.09.565,Cued GoNogo Task,2024.2.4,60.01547198771554,2025-04-26 18h29.16.458088 +0200,
block/CondBlock1.xlsx,You are about to start a block of type 1 trials.,18,18,0,Go,Go,0.47,0.2,0.05,space,blue,vertical,space,3.6961850999796297,None,space,1,0.298399099992821,None,,,,0,0,0,0,0,18,18,18,103.44623159998446,,,,,,,,,,,,,,,,103.430449699983,103.44623159998446,104.14620639997884,104.14620639997884,104.64634239999577,104.63031659999979,104.63090859999647,104.64634239999577,105.12972939998144,105.31278249999741,105.31278249999741,105.61459429998649,space,1,0.298399099992821,None,105.61877849997836,106.12968969999929,107.12990499997977,107.11375069999485,,,,,,,,,,,,,,,,,003b,001,2025-04-26_18h29.09.565,Cued GoNogo Task,2024.2.4,60.01547198771554,2025-04-26 18h29.16.458088 +0200,
block/CondBlock1.xlsx,You are about to start a block of type 1 trials.,19,19,0,Go,Go,0.18,0.2,0.05,space,green,vertical,space,3.6961850999796297,None,space,1,0.2587241999863181,None,,,,0,0,0,0,0,19,19,19,107.12990499997977,,,,,,,,,,,,,,,,107.1140607999987,107.12990499997977,107.8297992000007,107.8297992000007,108.32964069998707,108.31380039997748,108.31460659997538,108.32964069998707,108.51281119999476,108.69631229998777,108.69631229998777,108.96425900000031,space,1,0.2587241999863181,None,108.97057849998237,109.47954030000255,110.47962569998344,110.46396669998649,,,,,,,,,,,,,,,,,003b,001,2025-04-26_18h29.09.565,Cued GoNogo Task,2024.2.4,60.01547198771554,2025-04-26 18h29.16.458088 +0200,
block/CondBlock1.xlsx,You are about to start a block of type 1 trials.,20,20,0,Go,Go,0.19,0.2,0.05,space,blue,vertical,space,3.6961850999796297,None,space,1,0.2828192000160925,None,,,,0,0,0,0,0,20,20,20,110.47962569998344,,,,,,,,,,,,,,,,110.46432739999727,110.47962569998344,111.17957259999821,111.17957259999821,111.67969699998503,111.66376349999337,111.66436969998176,111.67969699998503,111.87964369999827,112.06287529997644,112.06287529997644,112.34849069998018,space,1,0.2828192000160925,None,112.35203769998043,112.86299899997539,113.86290049998206,113.8470207999926,,,,,,,,,,,,,,,,,003b,001,2025-04-26_18h29.09.565,Cued GoNogo Task,2024.2.4,60.01547198771554,2025-04-26 18h29.16.458088 +0200,
block/CondBlock1.xlsx,You are about to start a block of type 1 trials.,21,21,0,Go,Go,0.14,0.2,0.05,space,blue,vertical,space,3.6961850999796297,None,space,1,0.31131670001195744,None,,,,0,0,0,0,0,21,21,21,113.86290049998206,,,,,,,,,,,,,,,,113.84741439999198,113.86290049998206,114.56301759998314,114.56301759998314,115.06296219999786,115.0471225999936,115.04787069998565,115.06296219999786,115.21313869999722,115.39628729998367,115.39628729998367,115.714066799992,space,1,0.31131670001195744,None,115.71816439999384,116.22965759999352,117.22959109998192,117.2139658999804,,,,,,,,,,,,,,,,,003b,001,2025-04-26_18h29.09.565,Cued GoNogo Task,2024.2.4,60.01547198771554,2025-04-26 18h29.16.458088 +0200,
block/CondBlock1.xlsx,You are about to start a block of type 1 trials.,22,22,0,Go,Go,0.15,0.2,0.05,space,blue,vertical,space,3.6961850999796297,None,space,1,0.39932599998428486,None,,,,0,0,0,0,0,22,22,22,117.22959109998192,,,,,,,,,,,,,,,,117.21439729997655,117.22959109998192,117.92962119998992,117.92962119998992,118.42965399997775,118.41354609999689,118.41412750000018,118.42965399997775,118.57962449998013,118.77953139998135,118.77953139998135,119.18160559999524,space,1,0.39932599998428486,None,119.18622429997777,119.69621329999063,120.69612259999849,120.6806307999941,,,,,,,,,,,,,,,,,003b,001,2025-04-26_18h29.09.565,Cued GoNogo Task,2024.2.4,60.01547198771554,2025-04-26 18h29.16.458088 +0200,
block/CondBlock1.xlsx,You are about to start a block of type 1 trials.,23,23,0,Go,Go,0.23,0.05,0.2,space,green,horizontal,space,3.6961850999796297,None,space,1,0.3376157000020612,None,,,,0,0,0,0,0,23,23,23,120.69612259999849,,,,,,,,,,,,,,,,120.68095159999211,120.69612259999849,121.39620139999897,121.39620139999897,121.8964915999968,121.88088359998073,121.88183319999371,121.8964915999968,122.12963099998888,122.31285719998414,122.31285719998414,122.66398529999424,space,1,0.3376157000020612,None,122.6674957999785,123.17966069999966,124.1796641999972,124.16352509998251,,,,,,,,,,,,,,,,,003b,001,2025-04-26_18h29.09.565,Cued GoNogo Task,2024.2.4,60.01547198771554,2025-04-26 18h29.16.458088 +0200,
block/CondBlock1.xlsx,You are about to start a block of type 1 trials.,24,24,0,Go,Go,0.2,0.2,0.05,space,blue,vertical,space,3.6961850999796297,None,space,1,0.29447399999480695,None,,,,0,0,0,0,0,24,24,24,124.1796641999972,,,,,,,,,,,,,,,,124.16376499997568,124.1796641999972,124.87953459998243,124.87953459998243,125.37967729999218,125.36368399998173,125.36441519999062,125.37967729999218,125.57958629998029,125.77972649998264,125.77972649998264,126.080489999993,space,1,0.29447399999480695,None,126.08396039999207,126.57966089999536,127.5795634999813,127.56381890000193,,,,,,,,,,,,,,,,,003b,001,2025-04-26_18h29.09.565,Cued GoNogo Task,2024.2.4,60.01547198771554,2025-04-26 18h29.16.458088 +0200,
block/CondBlock1.xlsx,You are about to start a block of type 1 trials.,25,25,0,Go,Go,0.15,0.2,0.05,space,blue,vertical,space,3.6961850999796297,None,space,1,0.3041417999775149,None,,,,0,0,0,0,0,25,25,25,127.5795634999813,,,,,,,,,,,,,,,,127.56416959999478,127.5795634999813,128.27965719997883,128.27965719997883,128.77954709998448,128.76357660000212,128.764148199989,128.77954709998448,128.92952509998577,129.12980470000184,129.12980470000184,129.44734179999796,space,1,0.3041417999775149,None,129.45048559998395,129.96289179997984,130.96303689997876,130.94685259999824,,,,,,,,,,,,,,,,,003b,001,2025-04-26_18h29.09.565,Cued GoNogo Task,2024.2.4,60.01547198771554,2025-04-26 18h29.16.458088 +0200,
block/CondBlock1.xlsx,You are about to start a block of type 1 trials.,26,26,0,NoGo,NoGo,0.2,0.2,0.05,none,blue,vertical,space,3.6961850999796297,None,space,0,0.3434087999921758,None,,,,0,0,0,0,0,26,26,26,130.96303689997876,,,,,,,,,,,,,,,,130.94718969997484,130.96303689997876,131.64624339999864,131.66295450000325,132.14637719999882,132.1301594999968,132.1308220999781,132.16291419998743,132.36298439998063,132.56308829999762,132.56308829999762,132.9139434999961,space,0,0.3434087999921758,None,132.91736609998043,133.4295800999971,134.42978409997886,134.41351389998454,,,,,,,,,,,,,,,,,003b,001,2025-04-26_18h29.09.565,Cued GoNogo Task,2024.2.4,60.01547198771554,2025-04-26 18h29.16.458088 +0200,
block/CondBlock1.xlsx,You are about to start a block of type 1 trials.,27,27,0,Go,Go,0.29,0.05,0.2,space,green,horizontal,space,3.6961850999796297,None,space,1,0.37775740001234226,None,,,,0,0,0,0,0,27,27,27,134.42978409997886,,,,,,,,,,,,,,,,134.4137690999778,134.42978409997886,135.12970489999861,135.12970489999861,135.62966969999252,135.61367229997995,135.61429759999737,135.62966969999252,135.9297001999803,136.1129449,136.1129449,136.49725190000026,space,1,0.37775740001234226,None,136.50036769997678,136.9961684999871,137.99628490000032,137.98021859998698,,,,,,,,,,,,,,,,,003b,001,2025-04-26_18h29.09.565,Cued GoNogo Task,2024.2.4,60.01547198771554,2025-04-26 18h29.16.458088 +0200,
block/CondBlock1.xlsx,You are about to start a block of type 1 trials.,28,28,0,Go,Go,0.24,0.2,0.05,space,blue,vertical,space,3.6961850999796297,None,space,1,0.4608148999977857,None,,,,0,0,0,0,0,28,28,28,137.99628490000032,,,,,,,,,,,,,,,,137.9805129999877,138.01292869998724,138.7131464999984,138.7131464999984,139.21282739998423,139.1970011999947,139.19760309997946,139.21282739998423,139.46298409998417,139.64625809999416,139.64625809999416,140.11402660000022,space,1,0.4608148999977857,None,140.11772419998306,140.62959820000106,141.62950009998167,141.6137748999754,,,,,,,,,,,,,,,,,003b,001,2025-04-26_18h29.09.565,Cued GoNogo Task,2024.2.4,60.01547198771554,2025-04-26 18h29.16.458088 +0200,
block/CondBlock1.xlsx,You are about to start a block of type 1 trials.,29,29,0,Go,Go,0.15,0.05,0.2,space,green,horizontal,space,3.6961850999796297,None,space,1,0.4149969999853056,None,,,,0,0,0,0,0,29,29,29,141.62950009998167,,,,,,,,,,,,,,,,141.61405599999125,141.62950009998167,142.31295679998584,142.32952929998282,142.8127928999893,142.79717829998117,142.79780749999918,142.82954989999416,142.97978689998854,143.17977139999857,143.17977139999857,143.59785189997638,space,1,0.4149969999853056,None,143.60239679997903,144.11282290000236,145.1129280999885,145.09682149998844,,,,,,,,,,,,,,,,,003b,001,2025-04-26_18h29.09.565,Cued GoNogo Task,2024.2.4,60.01547198771554,2025-04-26 18h29.16.458088 +0200,
block/CondBlock1.xlsx,You are about to start a block of type 1 trials.,30,30,0,Go,Go,0.23,0.2,0.05,space,green,vertical,space,3.6961850999796297,None,space,1,0.33601480000652373,None,,,,0,0,0,0,0,30,30,30,145.1129280999885,,,,,,,,,,,,,,,,145.09709709999152,145.1129280999885,145.81282939997618,145.81282939997618,146.3129587000003,146.29719569999725,146.29791500000283,146.3129587000003,146.5462871999771,146.7297393999761,146.7297393999761,147.08066019997932,space,1,0.33601480000652373,None,147.08389929999248,147.579622499994,148.57949659999576,148.56370389999938,,,,,,,,,,,,,,,,,003b,001,2025-04-26_18h29.09.565,Cued GoNogo Task,2024.2.4,60.01547198771554,2025-04-26 18h29.16.458088 +0200,
block/CondBlock1.xlsx,You are about to start a block of type 1 trials.,31,31,0,Go,Go,0.28,0.2,0.05,space,green,vertical,space,3.6961850999796297,None,space,1,0.41974589999881573,None,,,,0,0,0,0,0,31,31,31,148.57949659999576,,,,,,,,,,,,,,,,148.56398629999603,148.596269200003,149.2962723999808,149.2962723999808,149.79628549999325,149.78052439997555,149.78122659999644,149.79628549999325,150.07970729999943,150.26285549998283,150.26285549998283,150.69778970000334,space,1,0.41974589999881573,None,150.703440399986,151.2129293999751,152.21314839998377,152.19706700000097,,,,,,,,,,,,,,,,,003b,001,2025-04-26_18h29.09.565,Cued GoNogo Task,2024.2.4,60.01547198771554,2025-04-26 18h29.16.458088 +0200,
block/CondBlock1.xlsx,You are about to start a block of type 1 trials.,32,32,0,Go,Go,0.19,0.2,0.05,space,green,vertical,space,3.6961850999796297,None,space,1,0.23035269998945296,None,,,,0,0,0,0,0,32,32,32,152.21314839998377,,,,,,,,,,,,,,,,152.1973356999806,152.21314839998377,152.91287859997828,152.91287859997828,153.41301759998896,153.39742909997585,153.39828219998162,153.41301759998896,153.61297629997716,153.79635189997498,153.79635189997498,154.03067219999502,space,1,0.23035269998945296,None,154.0350943999947,154.529521199991,155.52950219999184,155.5135132999858,,,,,,,,,,,,,,,,,003b,001,2025-04-26_18h29.09.565,Cued GoNogo Task,2024.2.4,60.01547198771554,2025-04-26 18h29.16.458088 +0200,
block/CondBlock1.xlsx,You are about to start a block of type 1 trials.,33,33,0,Go,Go,0.12,0.2,0.05,space,green,vertical,space,3.6961850999796297,None,space,1,0.3236922000069171,None,,,,0,0,0,0,0,33,33,33,155.52950219999184,,,,,,,,,,,,,,,,155.5138146999816,155.54637070000172,156.2297359999793,156.2463082000031,156.7295732999919,156.713617100002,156.7142108999833,156.7462463999982,156.87954689998878,157.06292519997805,157.06292519997805,157.39767509998637,space,1,0.3236922000069171,None,157.40180699998746,157.91315859998576,158.91286029998446,158.8969554999785,,,,,,,,,,,,,,,,,003b,001,2025-04-26_18h29.09.565,Cued GoNogo Task,2024.2.4,60.01547198771554,2025-04-26 18h29.16.458088 +0200,
block/CondBlock1.xlsx,You are about to start a block of type 1 trials.,34,34,0,Go,Go,0.18,0.2,0.05,space,blue,vertical,space,3.6961850999796297,None,space,1,0.3467139999847859,None,,,,0,0,0,0,0,34,34,34,158.91286029998446,,,,,,,,,,,,,,,,158.89719139999943,158.91286029998446,159.61307069999748,159.61307069999748,160.11281099999906,160.09732929998427,160.09811619998072,160.11281099999906,160.29642389999935,160.47959279999486,160.47959279999486,160.83100700000068,space,1,0.3467139999847859,None,160.83495599997696,161.34633099997882,162.34627419998287,162.33042319997912,,,,,,,,,,,,,,,,,003b,001,2025-04-26_18h29.09.565,Cued GoNogo Task,2024.2.4,60.01547198771554,2025-04-26 18h29.16.458088 +0200,
block/CondBlock1.xlsx,You are about to start a block of type 1 trials.,35,35,0,Go,Go,0.21,0.2,0.05,space,blue,vertical,space,3.6961850999796297,None,None,0,,,,,,0,0,0,0,0,35,35,35,162.34627419998287,,,,,,,,,,,,,,,,162.33068939999794,162.34627419998287,163.04643019998912,163.04643019998912,163.54639000000316,163.53022629997577,163.53087879999657,163.54639000000316,163.76292889998876,163.94629069999792,163.94629069999792,164.43025939998915,None,0,,,164.43428009998752,164.9297958999814,165.92961209997884,165.91396659999737,164.44613669998944,164.44613669998944,,,,,,,,,,,,,,,003b,001,2025-04-26_18h29.09.565,Cued GoNogo Task,2024.2.4,60.01547198771554,2025-04-26 18h29.16.458088 +0200,
block/CondBlock1.xlsx,You are about to start a block of type 1 trials.,36,36,0,Go,Go,0.2,0.2,0.05,space,green,vertical,space,3.6961850999796297,None,space,1,0.38445350000984035,None,,,,0,0,0,0,0,36,36,36,165.92961209997884,,,,,,,,,,,,,,,,165.91431779999402,165.92961209997884,166.62953509998624,166.62953509998624,167.1296733999916,167.11377070000162,167.11444899998605,167.1296733999916,167.32975869998336,167.529641000001,167.529641000001,167.93124099998386,space,1,0.38445350000984035,None,167.93670479999855,168.44632209997508,169.44632219997584,169.43044729999383,,,,,,,,,,,,,,,,,003b,001,2025-04-26_18h29.09.565,Cued GoNogo Task,2024.2.4,60.01547198771554,2025-04-26 18h29.16.458088 +0200,
block/CondBlock1.xlsx,You are about to start a block of type 1 trials.,37,37,0,Go,Go,0.45,0.05,0.2,space,blue,horizontal,space,3.6961850999796297,None,space,1,0.4428996000206098,None,,,,0,0,0,0,0,37,37,37,169.44632219997584,,,,,,,,,,,,,,,,169.4307818999805,169.44632219997584,170.1462360000005,170.1462360000005,170.64620989997638,170.6305144999933,170.6312418000016,170.64620989997638,171.09636979998322,171.29634859997896,171.29634859997896,171.7475148999947,space,1,0.4428996000206098,None,171.75175090000266,172.26298749999842,173.26303770000231,173.24681519999285,,,,,,,,,,,,,,,,,003b,001,2025-04-26_18h29.09.565,Cued GoNogo Task,2024.2.4,60.01547198771554,2025-04-26 18h29.16.458088 +0200,
block/CondBlock1.xlsx,You are about to start a block of type 1 trials.,38,38,0,Go,Go,0.13,0.05,0.2,space,blue,horizontal,space,3.6961850999796297,None,space,1,0.31949539997731335,None,,,,0,0,0,0,0,38,38,38,173.26303770000231,,,,,,,,,,,,,,,,173.24702899999102,173.26303770000231,173.96303429998807,173.96303429998807,174.46304799997597,174.44713279997814,174.44769239999005,174.46304799997597,174.59628699999303,174.77963769997586,174.77963769997586,175.11387119998108,space,1,0.31949539997731335,None,175.11719219997758,175.61285789997783,176.61297069999273,176.5972727999906,,,,,,,,,,,,,,,,,003b,001,2025-04-26_18h29.09.565,Cued GoNogo Task,2024.2.4,60.01547198771554,2025-04-26 18h29.16.458088 +0200,
block/CondBlock1.xlsx,You are about to start a block of type 1 trials.,39,39,0,Go,Go,0.46,0.2,0.05,space,blue,vertical,space,3.6961850999796297,None,space,1,0.09087319998070598,None,,,,0,0,0,0,0,39,39,39,176.61297069999273,,,,,,,,,,,,,,,,176.59757659997558,176.61297069999273,177.31275650000316,177.31275650000316,177.8130559999845,177.7968340999796,177.79748849998577,177.82959359997767,178.2963233999908,178.47958579999977,178.47958579999977,178.58049729999038,space,1,0.09087319998070598,None,178.58453669998562,179.0798897999921,180.07969349998166,180.06373120000353,,,,,,,,,,,,,,,,,003b,001,2025-04-26_18h29.09.565,Cued GoNogo Task,2024.2.4,60.01547198771554,2025-04-26 18h29.16.458088 +0200,
block/CondBlock1.xlsx,You are about to start a block of type 1 trials.,40,40,0,Go,Go,0.29,0.2,0.05,space,blue,vertical,space,3.6961850999796297,None,space,1,0.31185469997581095,None,,,,0,0,0,0,0,40,40,40,180.07969349998166,,,,,,,,,,,,,,,,180.06400359998224,180.07969349998166,180.77952989999903,180.77952989999903,181.27956419999828,181.26377920000232,181.26446959999157,181.27956419999828,181.5794664999994,181.7796913999773,181.7796913999773,182.09758049997617,space,1,0.31185469997581095,None,182.10175339999842,182.61306350000086,183.61294639998232,183.5972057999752,,,,,,,,,,,,,,,,,003b,001,2025-04-26_18h29.09.565,Cued GoNogo Task,2024.2.4,60.01547198771554,2025-04-26 18h29.16.458088 +0200,
block/CondBlock1.xlsx,You are about to start a block of type 1 trials.,41,41,0,Go,Go,0.22,0.2,0.05,space,blue,vertical,space,3.6961850999796297,None,space,1,0.2690571999992244,None,,,,0,0,0,0,0,41,41,41,183.61294639998232,,,,,,,,,,,,,,,,183.59755320000113,183.61294639998232,184.313058300002,184.313058300002,184.81288689997746,184.79717909998726,184.79790330000105,184.81288689997746,185.0464512000035,185.22951859998284,185.22951859998284,185.51409650000278,space,1,0.2690571999992244,None,185.5199322999979,186.02962529999786,187.02964130000328,187.0136534999765,,,,,,,,,,,,,,,,,003b,001,2025-04-26_18h29.09.565,Cued GoNogo Task,2024.2.4,60.01547198771554,2025-04-26 18h29.16.458088 +0200,
block/CondBlock1.xlsx,You are about to start a block of type 1 trials.,42,42,0,Go,Go,0.49,0.2,0.05,space,blue,vertical,space,3.6961850999796297,None,space,1,0.05768299999181181,None,,,,0,0,0,0,0,42,42,42,187.02964130000328,,,,,,,,,,,,,,,,187.01395120000234,187.02964130000328,187.72962379999808,187.72962379999808,188.22953929999494,188.2136094000016,188.21417669998482,188.22953929999494,188.72967349999817,188.91304729998228,188.91304729998228,188.98059910000302,space,1,0.05768299999181181,None,188.98425179999322,189.47961089998716,190.4795098999748,190.46350179999718,,,,,,,,,,,,,,,,,003b,001,2025-04-26_18h29.09.565,Cued GoNogo Task,2024.2.4,60.01547198771554,2025-04-26 18h29.16.458088 +0200,
block/CondBlock1.xlsx,You are about to start a block of type 1 trials.,43,43,0,Go,Go,0.2,0.2,0.05,space,blue,vertical,space,3.6961850999796297,None,space,1,0.1234859999967739,None,,,,0,0,0,0,0,43,43,43,190.4795098999748,,,,,,,,,,,,,,,,190.463723199995,190.4963485999906,191.19635019998532,191.19635019998532,191.6962707999919,191.68017710000277,191.68077849998372,191.6962707999919,191.8962708999752,192.07974289997946,192.07974289997946,192.21419629998854,space,1,0.1234859999967739,None,192.21905429998878,192.7296776000003,193.729574099998,193.71375959998113,,,,,,,,,,,,,,,,,003b,001,2025-04-26_18h29.09.565,Cued GoNogo Task,2024.2.4,60.01547198771554,2025-04-26 18h29.16.458088 +0200,
block/CondBlock1.xlsx,You are about to start a block of type 1 trials.,44,44,0,Go,Go,0.3,0.05,0.2,space,blue,horizontal,space,3.6961850999796297,None,space,1,0.29284790001111105,None,,,,0,0,0,0,0,44,44,44,193.729574099998,,,,,,,,,,,,,,,,193.71406279999064,193.729574099998,194.42970849998528,194.42970849998528,194.92961589997867,194.91403889999492,194.9151082999888,194.92961589997867,195.22976129999734,195.42961539997486,195.42961539997486,195.7309708999819,space,1,0.29284790001111105,None,195.7350623999955,196.2461811999965,197.2464145999984,197.2300609999802,,,,,,,,,,,,,,,,,003b,001,2025-04-26_18h29.09.565,Cued GoNogo Task,2024.2.4,60.01547198771554,2025-04-26 18h29.16.458088 +0200,
block/CondBlock1.xlsx,You are about to start a block of type 1 trials.,45,45,0,NoGo,NoGo,0.21,0.05,0.2,none,green,horizontal,space,3.6961850999796297,None,space,0,0.10922419998678379,None,,,,0,0,0,0,0,45,45,45,197.2464145999984,,,,,,,,,,,,,,,,197.23031809998793,197.2464145999984,197.9463882999844,197.9463882999844,198.44621579998056,198.43082169999252,198.43154009999125,198.44621579998056,198.6630535000004,198.84646159998374,198.84646159998374,198.9644933999807,space,0,0.10922419998678379,None,198.9690500999859,199.4795750999765,200.47973069999716,200.4638411999913,,,,,,,,,,,,,,,,,003b,001,2025-04-26_18h29.09.565,Cued GoNogo Task,2024.2.4,60.01547198771554,2025-04-26 18h29.16.458088 +0200,
block/CondBlock1.xlsx,You are about to start a block of type 1 trials.,46,46,0,NoGo,NoGo,0.45,0.05,0.2,none,blue,horizontal,space,3.6961850999796297,None,space,0,0.27281480000237934,None,,,,0,0,0,0,0,46,46,46,200.47973069999716,,,,,,,,,,,,,,,,200.46415829999023,200.47973069999716,201.17972569999984,201.17972569999984,201.6794688999944,201.663544799987,201.66399309999542,201.6794688999944,202.1298795999901,202.32987169999979,202.32987169999979,202.61389269999927,space,0,0.27281480000237934,None,202.61459189999732,203.12977259999025,204.1296902000031,204.11363669999992,,,,,,,,,,,,,,,,,003b,001,2025-04-26_18h29.09.565,Cued GoNogo Task,2024.2.4,60.01547198771554,2025-04-26 18h29.16.458088 +0200,
block/CondBlock1.xlsx,You are about to start a block of type 1 trials.,47,47,0,Go,Go,0.24,0.05,0.2,space,green,horizontal,space,3.6961850999796297,None,space,1,0.3753420000139158,None,,,,0,0,0,0,0,47,47,47,204.1296902000031,,,,,,,,,,,,,,,,204.11402749997796,204.1296902000031,204.81322139999247,204.82968299998902,205.31310729999677,205.29698869999265,205.2977047000022,205.31310729999677,205.56295269998373,205.76311649999116,205.76311649999116,206.1473748999997,space,1,0.3753420000139158,None,206.15240199997788,206.66282050000154,207.66293329998734,207.64688549999846,,,,,,,,,,,,,,,,,003b,001,2025-04-26_18h29.09.565,Cued GoNogo Task,2024.2.4,60.01547198771554,2025-04-26 18h29.16.458088 +0200,
block/CondBlock1.xlsx,You are about to start a block of type 1 trials.,48,48,0,NoGo,NoGo,0.15,0.2,0.05,none,blue,vertical,space,3.6961850999796297,None,None,1,,,,,,0,0,0,0,0,48,48,48,207.66293329998734,,,,,,,,,,,,,,,,207.6471453999984,207.66293329998734,208.36309050000273,208.36309050000273,208.86295719997725,208.8469972999883,208.84762769998633,208.86295719997725,209.0130261000013,209.21292619997985,209.21292619997985,209.6966071999923,None,1,,,209.69860199998948,210.19644869997865,211.19627919999766,211.1804954999825,209.71290389998467,209.71290389998467,,,,,,,,,,,,,,,003b,001,2025-04-26_18h29.09.565,Cued GoNogo Task,2024.2.4,60.01547198771554,2025-04-26 18h29.16.458088 +0200,
block/CondBlock1.xlsx,You are about to start a block of type 1 trials.,49,49,0,Go,Go,0.12,0.05,0.2,space,blue,horizontal,space,3.6961850999796297,None,space,1,0.3211144999950193,None,,,,0,0,0,0,0,49,49,49,211.19627919999766,,,,,,,,,,,,,,,,211.1808422000031,211.19627919999766,211.89644549999502,211.89644549999502,212.39644899999257,212.38026259999606,212.3808189999836,212.39644899999257,212.52954019999015,212.72967919998337,212.72967919998337,213.06466949998867,space,1,0.3211144999950193,None,213.06959440000355,213.57961349998368,214.57951999999932,214.56389359998866,,,,,,,,,,,,,,,,,003b,001,2025-04-26_18h29.09.565,Cued GoNogo Task,2024.2.4,60.01547198771554,2025-04-26 18h29.16.458088 +0200,
block/CondBlock1.xlsx,You are about to start a block of type 1 trials.,50,50,0,Go,Go,0.22,0.2,0.05,space,green,vertical,space,3.6961850999796297,None,space,1,0.3580325999937486,None,,,,0,0,0,0,0,50,50,50,214.57951999999932,,,,,,,,,,,,,,,,214.56425509997644,214.57951999999932,215.27955579999252,215.27955579999252,215.77972749999026,215.76425310000195,215.76495989999967,215.77972749999026,216.01314709999133,216.19646549999015,216.19646549999015,216.5640437999973,space,1,0.3580325999937486,None,216.5679476999794,217.06295079999836,218.0631472999812,218.0466695999785,,,,,,,,,,,,,,,,,003b,001,2025-04-26_18h29.09.565,Cued GoNogo Task,2024.2.4,60.01547198771554,2025-04-26 18h29.16.458088 +0200,
block/CondBlock1.xlsx,You are about to start a block of type 1 trials.,51,51,0,Go,Go,0.28,0.05,0.2,space,green,horizontal,space,3.6961850999796297,None,space,1,0.34538899999461137,None,,,,0,0,0,0,0,51,51,51,218.0631472999812,,,,,,,,,,,,,,,,218.04684949998045,218.07960759999696,218.77962859999388,218.77962859999388,219.2797431999934,219.26356439999654,219.26420599999256,219.2797431999934,219.56300589998136,219.74633679998806,219.74633679998806,220.0979662000027,space,1,0.34538899999461137,None,220.10369029999129,220.61295489998884,221.61303629999747,221.59713599999668,,,,,,,,,,,,,,,,,003b,001,2025-04-26_18h29.09.565,Cued GoNogo Task,2024.2.4,60.01547198771554,2025-04-26 18h29.16.458088 +0200,
block/CondBlock1.xlsx,You are about to start a block of type 1 trials.,52,52,0,Go,Go,0.23,0.2,0.05,space,green,vertical,space,3.6961850999796297,None,space,1,0.42864600001485087,None,,,,0,0,0,0,0,52,52,52,221.61303629999747,,,,,,,,,,,,,,,,221.59742399997776,221.61303629999747,222.31287759999395,222.31287759999395,222.81308399999398,222.79688779998105,222.79776669997955,222.81308399999398,223.0463238999946,223.2296881999937,223.2296881999937,223.66396499998518,space,1,0.42864600001485087,None,223.6669296999753,224.16321729999618,225.16292399997474,225.14745869999751,,,,,,,,,,,,,,,,,003b,001,2025-04-26_18h29.09.565,Cued GoNogo Task,2024.2.4,60.01547198771554,2025-04-26 18h29.16.458088 +0200,
block/CondBlock1.xlsx,You are about to start a block of type 1 trials.,53,53,0,Go,Go,0.22,0.05,0.2,space,green,horizontal,space,3.6961850999796297,None,space,1,0.09347170000546612,None,,,,0,0,0,0,0,53,53,53,225.16292399997474,,,,,,,,,,,,,,,,225.14786689999164,225.16292399997474,225.86299709999003,225.86299709999003,226.3630972999963,226.34719669999322,226.34792639999068,226.3630972999963,226.59633099997882,226.79630869999528,226.79630869999528,226.89751079998678,space,1,0.09347170000546612,None,226.90272889999324,227.41301769998972,228.41291729998193,228.39762419997714,,,,,,,,,,,,,,,,,003b,001,2025-04-26_18h29.09.565,Cued GoNogo Task,2024.2.4,60.01547198771554,2025-04-26 18h29.16.458088 +0200,
block/CondBlock1.xlsx,You are about to start a block of type 1 trials.,54,54,0,NoGo,NoGo,0.14,0.05,0.2,none,green,horizontal,space,3.6961850999796297,None,space,0,0.19190070001059212,None,,,,0,0,0,0,0,54,54,54,228.41291729998193,,,,,,,,,,,,,,,,228.39802979998058,228.41291729998193,229.11300039998605,229.11300039998605,229.6128483999928,229.59722609998425,229.59810339999967,229.6128483999928,229.76298810000299,229.94616329998826,229.94616329998826,230.14732719998574,space,0,0.19190070001059212,None,230.15284769999562,230.66307009998127,231.66304939999827,231.64714019998792,,,,,,,,,,,,,,,,,003b,001,2025-04-26_18h29.09.565,Cued GoNogo Task,2024.2.4,60.01547198771554,2025-04-26 18h29.16.458088 +0200,
block/CondBlock1.xlsx,You are about to start a block of type 1 trials.,55,55,0,Go,Go,0.15,0.2,0.05,space,blue,vertical,space,3.6961850999796297,None,None,0,,,,,,0,0,0,0,0,55,55,55,231.66304939999827,,,,,,,,,,,,,,,,231.64740019998862,231.66304939999827,232.36305889999494,232.36305889999494,232.86302879999857,232.847102300002,232.8478634999774,232.86302879999857,233.01302519999444,233.21307499997783,233.21307499997783,233.6969409000012,None,0,,,233.7004101999919,234.19640539999818,235.1963517999975,235.18078480000258,233.71296969999094,233.71296969999094,,,,,,,,,,,,,,,003b,001,2025-04-26_18h29.09.565,Cued GoNogo Task,2024.2.4,60.01547198771554,2025-04-26 18h29.16.458088 +0200,
block/CondBlock1.xlsx,You are about to start a block of type 1 trials.,56,56,0,Go,Go,0.47,0.2,0.05,space,blue,vertical,space,3.6961850999796297,None,space,1,0.32251160001032986,None,,,,0,0,0,0,0,56,56,56,235.1963517999975,,,,,,,,,,,,,,,,235.18125110000256,235.1963517999975,235.8963663999748,235.8963663999748,236.39617919997545,236.38019379999605,236.3808044999896,236.39617919997545,236.8797374999849,237.0795792999852,237.0795792999852,237.4142815999803,space,1,0.32251160001032986,None,237.41856530000223,237.92954819998704,238.92930369998794,238.91327679998358,,,,,,,,,,,,,,,,,003b,001,2025-04-26_18h29.09.565,Cued GoNogo Task,2024.2.4,60.01547198771554,2025-04-26 18h29.16.458088 +0200,
block/CondBlock1.xlsx,You are about to start a block of type 1 trials.,57,57,0,NoGo,NoGo,0.42,0.2,0.05,none,green,vertical,space,3.6961850999796297,None,space,0,0.25633629999356344,None,,,,0,0,0,0,0,57,57,57,238.92930369998794,,,,,,,,,,,,,,,,238.91347719999612,238.92930369998794,239.62980289998814,239.62980289998814,240.12961599999107,240.11384159998852,240.1145753999881,240.12961599999107,240.56307919998653,240.7464648000023,240.7464648000023,241.0139476999757,space,0,0.25633629999356344,None,241.0200152999896,241.51302059998852,242.51305629999842,242.49708729999838,,,,,,,,,,,,,,,,,003b,001,2025-04-26_18h29.09.565,Cued GoNogo Task,2024.2.4,60.01547198771554,2025-04-26 18h29.16.458088 +0200,
block/CondBlock1.xlsx,You are about to start a block of type 1 trials.,58,58,0,Go,Go,0.22,0.05,0.2,space,green,horizontal,space,3.6961850999796297,None,space,1,0.29633539999485947,None,,,,0,0,0,0,0,58,58,58,242.51305629999842,,,,,,,,,,,,,,,,242.49741139999242,242.51305629999842,243.21302189998096,243.21302189998096,243.71312199998647,243.6971486999828,243.69774539998616,243.71312199998647,243.94622779998463,244.14638289998402,244.14638289998402,244.447651399998,space,1,0.29633539999485947,None,244.45163179998053,244.96301149998908,245.96300229997723,245.9476097000006,,,,,,,,,,,,,,,,,003b,001,2025-04-26_18h29.09.565,Cued GoNogo Task,2024.2.4,60.01547198771554,2025-04-26 18h29.16.458088 +0200,
block/CondBlock1.xlsx,You are about to start a block of type 1 trials.,59,59,0,Go,Go,0.3,0.2,0.05,space,blue,vertical,space,3.6961850999796297,None,space,1,0.38053719999152236,None,,,,0,0,0,0,0,59,59,59,245.96300229997723,,,,,,,,,,,,,,,,245.9480518999917,245.96300229997723,246.66303909997805,246.66303909997805,247.16290249998565,247.14731949998531,247.1479919999838,247.16290249998565,247.4630949999846,247.66282909997972,247.66282909997972,248.0477049999754,space,1,0.38053719999152236,None,248.05199529998936,248.56298170000082,249.5630867999862,249.54676559998188,,,,,,,,,,,,,,,,,003b,001,2025-04-26_18h29.09.565,Cued GoNogo Task,2024.2.4,60.01547198771554,2025-04-26 18h29.16.458088 +0200,
block/CondBlock1.xlsx,You are about to start a block of type 1 trials.,60,60,0,NoGo,NoGo,0.24,0.2,0.05,none,blue,vertical,space,3.6961850999796297,None,None,1,,,,,,0,0,0,0,0,60,60,60,249.5630867999862,,,,,,,,,,,,,,,,249.54704619999393,249.5630867999862,250.26298529998166,250.26298529998166,250.7631233999855,250.7470786999911,250.7477177999972,250.7631233999855,251.01293199998327,251.19646169999032,251.19646169999032,251.68052850000095,None,1,,,251.6838310000021,252.1963341999799,253.19618430000264,253.18008679998457,251.69627039998886,251.69627039998886,,,,,,,,,,,,,,,003b,001,2025-04-26_18h29.09.565,Cued GoNogo Task,2024.2.4,60.01547198771554,2025-04-26 18h29.16.458088 +0200,
block/CondBlock1.xlsx,You are about to start a block of type 1 trials.,61,61,0,NoGo,NoGo,0.1,0.2,0.05,none,green,vertical,space,3.6961850999796297,None,None,1,,,,,,0,0,0,0,0,61,61,61,253.19618430000264,,,,,,,,,,,,,,,,253.18028369999956,253.19618430000264,253.8963290999818,253.8963290999818,254.39659079999547,254.3805214999884,254.3814405000012,254.39659079999547,254.49637129998882,254.67953259998467,254.67953259998467,255.16339829997742,None,1,,,255.16376899997704,255.66291019998607,256.6628381999908,256.64720529998885,255.1796025999938,255.1796025999938,,,,,,,,,,,,,,,003b,001,2025-04-26_18h29.09.565,Cued GoNogo Task,2024.2.4,60.01547198771554,2025-04-26 18h29.16.458088 +0200,
block/CondBlock1.xlsx,You are about to start a block of type 1 trials.,62,62,0,Go,Go,0.45,0.05,0.2,space,blue,horizontal,space,3.6961850999796297,None,space,1,0.2970177000097465,None,,,,0,0,0,0,0,62,62,62,256.6628381999908,,,,,,,,,,,,,,,,256.64750539997476,256.6628381999908,257.36315099999774,257.36315099999774,257.86297759998706,257.84677149998606,257.84732619998977,257.86297759998706,258.3132075999747,258.5131165999919,258.5131165999919,258.8144484999939,space,1,0.2970177000097465,None,258.8196936000022,259.32957760000136,260.329656899994,260.3140310999879,,,,,,,,,,,,,,,,,003b,001,2025-04-26_18h29.09.565,Cued GoNogo Task,2024.2.4,60.01547198771554,2025-04-26 18h29.16.458088 +0200,
block/CondBlock1.xlsx,You are about to start a block of type 1 trials.,63,63,0,Go,Go,0.1,0.05,0.2,space,green,horizontal,space,3.6961850999796297,None,space,1,0.38918689999263734,None,,,,0,0,0,0,0,63,63,63,260.329656899994,,,,,,,,,,,,,,,,260.3143764999986,260.329656899994,261.02960149999126,261.02960149999126,261.5300148999959,261.51390459999675,261.5146399999794,261.5300148999959,261.6296551999985,261.8297762000002,261.8297762000002,262.2310073999979,space,1,0.38918689999263734,None,262.23478060000343,262.74645659999806,263.74632979999296,263.7304151999997,,,,,,,,,,,,,,,,,003b,001,2025-04-26_18h29.09.565,Cued GoNogo Task,2024.2.4,60.01547198771554,2025-04-26 18h29.16.458088 +0200,
block/CondBlock1.xlsx,You are about to start a block of type 1 trials.,64,64,0,Go,Go,0.19,0.05,0.2,space,blue,horizontal,space,3.6961850999796297,None,space,1,0.2009736000036355,None,,,,0,0,0,0,0,64,64,64,263.74632979999296,,,,,,,,,,,,,,,,263.73076849998324,263.74632979999296,264.44623829997727,264.44623829997727,264.9463051999919,264.9302372999955,264.93086089999997,264.9463051999919,265.14626949999365,265.3294966999965,265.3294966999965,265.547405099991,space,1,0.2009736000036355,None,265.5508660999767,266.06304989999626,267.06301600000006,267.04730619999464,,,,,,,,,,,,,,,,,003b,001,2025-04-26_18h29.09.565,Cued GoNogo Task,2024.2.4,60.01547198771554,2025-04-26 18h29.16.458088 +0200,
block/CondBlock1.xlsx,You are about to start a block of type 1 trials.,65,65,0,Go,Go,0.21,0.2,0.05,space,blue,vertical,space,3.6961850999796297,None,space,1,0.2769169000093825,None,,,,0,0,0,0,0,65,65,65,267.06301600000006,,,,,,,,,,,,,,,,267.04761019998114,267.06301600000006,267.76321869998355,267.76321869998355,268.26301819999935,268.24685609998414,268.2472828000027,268.26301819999935,268.47969499998726,268.6629845999996,268.6629845999996,268.94753399997717,space,1,0.2769169000093825,None,268.9514315999986,269.46294040000066,270.46310159997665,270.44751830000314,,,,,,,,,,,,,,,,,003b,001,2025-04-26_18h29.09.565,Cued GoNogo Task,2024.2.4,60.01547198771554,2025-04-26 18h29.16.458088 +0200,
block/CondBlock1.xlsx,You are about to start a block of type 1 trials.,66,66,0,Go,Go,0.18,0.05,0.2,space,blue,horizontal,space,3.6961850999796297,None,space,1,0.1889194000104908,None,,,,0,0,0,0,0,66,66,66,270.46310159997665,,,,,,,,,,,,,,,,270.44790040000225,270.46310159997665,271.1631415000011,271.1631415000011,271.6629343999957,271.6474866999779,271.64843479997944,271.6629343999957,271.8462857999839,272.02964209998026,272.02964209998026,272.23122749998583,space,1,0.1889194000104908,None,272.2352083000005,272.74625199998263,273.7463310000021,273.7304255999916,,,,,,,,,,,,,,,,,003b,001,2025-04-26_18h29.09.565,Cued GoNogo Task,2024.2.4,60.01547198771554,2025-04-26 18h29.16.458088 +0200,
block/CondBlock1.xlsx,You are about to start a block of type 1 trials.,67,67,0,Go,Go,0.29,0.2,0.05,space,green,vertical,space,3.6961850999796297,None,space,1,0.4053233000158798,None,,,,0,0,0,0,0,67,67,67,273.7463310000021,,,,,,,,,,,,,,,,273.7307132999995,273.7463310000021,274.44639099997585,274.44639099997585,274.94616619998123,274.9304243999941,274.9310886999883,274.94616619998123,275.24641259998316,275.42976139998063,275.42976139998063,275.8476565000019,space,1,0.4053233000158798,None,275.8520935999986,276.3631347999908,277.36292739998316,277.3471451999794,,,,,,,,,,,,,,,,,003b,001,2025-04-26_18h29.09.565,Cued GoNogo Task,2024.2.4,60.01547198771554,2025-04-26 18h29.16.458088 +0200,
block/CondBlock1.xlsx,You are about to start a block of type 1 trials.,68,68,0,NoGo,NoGo,0.24,0.2,0.05,none,blue,vertical,space,3.6961850999796297,None,space,0,0.26294179999968037,None,,,,0,0,0,0,0,68,68,68,277.36292739998316,,,,,,,,,,,,,,,,277.3474355999788,277.36292739998316,278.0629925999965,278.0629925999965,278.5630284999788,278.5470718999859,278.547683199984,278.5630284999788,278.81302770000184,278.99638799999957,278.99638799999957,279.2646513999789,space,0,0.26294179999968037,None,279.2698722999776,279.7797840999847,280.77979790000245,280.76374860000215,,,,,,,,,,,,,,,,,003b,001,2025-04-26_18h29.09.565,Cued GoNogo Task,2024.2.4,60.01547198771554,2025-04-26 18h29.16.458088 +0200,
block/CondBlock1.xlsx,You are about to start a block of type 1 trials.,69,69,0,Go,Go,0.27,0.05,0.2,space,green,horizontal,space,3.6961850999796297,None,space,1,0.38021269999444485,None,,,,0,0,0,0,0,69,69,69,280.77979790000245,,,,,,,,,,,,,,,,280.76398379998864,280.77979790000245,281.4796079999942,281.4796079999942,281.97972679999657,281.96370729999035,281.9644483999873,281.97972679999657,282.262989299983,282.4462837000028,282.4462837000028,282.83072609998635,space,1,0.38021269999444485,None,282.8337593000033,283.32959499998833,284.3295947999868,284.3138391999819,,,,,,,,,,,,,,,,,003b,001,2025-04-26_18h29.09.565,Cued GoNogo Task,2024.2.4,60.01547198771554,2025-04-26 18h29.16.458088 +0200,
block/CondBlock1.xlsx,You are about to start a block of type 1 trials.,70,70,0,Go,Go,0.25,0.2,0.05,space,green,vertical,space,3.6961850999796297,None,space,1,0.31804479999118485,None,,,,0,0,0,0,0,70,70,70,284.3295947999868,,,,,,,,,,,,,,,,284.3141315999965,284.3295947999868,285.0463879999879,285.02976819998,285.5464257999847,285.53023699999903,285.53077929999563,285.5464257999847,285.7964084999985,285.99639559999923,285.99639559999923,286.33058919999166,space,1,0.31804479999118485,None,286.33430429999135,286.8297357999836,287.82953849999467,287.8136711999832,,,,,,,,,,,,,,,,,003b,001,2025-04-26_18h29.09.565,Cued GoNogo Task,2024.2.4,60.01547198771554,2025-04-26 18h29.16.458088 +0200,
block/CondBlock1.xlsx,You are about to start a block of type 1 trials.,71,71,0,Go,Go,0.28,0.05,0.2,space,green,horizontal,space,3.6961850999796297,None,space,1,0.32115579998935573,None,,,,0,0,0,0,0,71,71,71,287.82953849999467,,,,,,,,,,,,,,,,287.81390139998985,287.82953849999467,288.5297506999923,288.5297506999923,289.0296419999795,289.0140550999786,289.01464589999523,289.0296419999795,289.3130505000008,289.5129792999942,289.5129792999942,289.84774639998795,space,1,0.32115579998935573,None,289.8516061999835,290.36327179998625,291.36297009998816,291.34693839997635,,,,,,,,,,,,,,,,,003b,001,2025-04-26_18h29.09.565,Cued GoNogo Task,2024.2.4,60.01547198771554,2025-04-26 18h29.16.458088 +0200,
block/CondBlock1.xlsx,You are about to start a block of type 1 trials.,72,72,0,Go,Go,0.14,0.05,0.2,space,blue,horizontal,space,3.6961850999796297,None,space,1,0.3624087999924086,None,,,,0,0,0,0,0,72,72,72,291.36297009998816,,,,,,,,,,,,,,,,291.3471692999883,291.36297009998816,292.06300389999524,292.06300389999524,292.5630044999998,292.54703709998284,292.5476920999936,292.5630044999998,292.7129904999747,292.8963267999934,292.8963267999934,293.2641806000029,space,1,0.3624087999924086,None,293.2681862000027,293.77991899999324,294.77982219998376,294.76353929998004,,,,,,,,,,,,,,,,,003b,001,2025-04-26_18h29.09.565,Cued GoNogo Task,2024.2.4,60.01547198771554,2025-04-26 18h29.16.458088 +0200,
block/CondBlock1.xlsx,You are about to start a block of type 1 trials.,73,73,0,Go,Go,0.11,0.05,0.2,space,blue,horizontal,space,3.6961850999796297,None,space,1,0.4025512999796774,None,,,,0,0,0,0,0,73,73,73,294.77982219998376,,,,,,,,,,,,,,,,294.7637732999865,294.77982219998376,295.47965100000147,295.47965100000147,295.9796967000002,295.9637472999748,295.9643862999801,295.9796967000002,296.09622849998414,296.27987909998046,296.27987909998046,296.6978829999862,space,1,0.4025512999796774,None,296.7013863000029,297.21299629998975,298.2130285000021,298.1971801999898,,,,,,,,,,,,,,,,,003b,001,2025-04-26_18h29.09.565,Cued GoNogo Task,2024.2.4,60.01547198771554,2025-04-26 18h29.16.458088 +0200,
block/CondBlock1.xlsx,You are about to start a block of type 1 trials.,74,74,0,Go,Go,0.22,0.2,0.05,space,blue,vertical,space,3.6961850999796297,None,space,1,0.4212668999971356,None,,,,0,0,0,0,0,74,74,74,298.2130285000021,,,,,,,,,,,,,,,,298.1974009999831,298.2130285000021,298.9127974000003,298.9127974000003,299.4129385999986,299.39751499998965,299.3984619999828,299.4129385999986,299.64636389998486,299.8295505999995,299.8295505999995,300.2644938000012,space,1,0.4212668999971356,None,300.2696675999905,300.77971019997494,301.779721400002,301.76373129998683,,,,,,,,,,,,,,,,,003b,001,2025-04-26_18h29.09.565,Cued GoNogo Task,2024.2.4,60.01547198771554,2025-04-26 18h29.16.458088 +0200,
block/CondBlock1.xlsx,You are about to start a block of type 1 trials.,75,75,0,Go,Go,0.26,0.05,0.2,space,blue,horizontal,space,3.6961850999796297,None,space,1,0.309402399987448,None,,,,0,0,0,0,0,75,75,75,301.779721400002,,,,,,,,,,,,,,,,301.7640141999873,301.779721400002,302.4798021999886,302.4798021999886,302.9797566999914,302.96412199997576,302.96506639997824,302.9797566999914,303.2463428999763,303.42965449998155,303.42965449998155,303.7479209000012,space,1,0.309402399987448,None,303.75221639999654,304.26311859997804,305.2630048999854,305.2471099999966,,,,,,,,,,,,,,,,,003b,001,2025-04-26_18h29.09.565,Cued GoNogo Task,2024.2.4,60.01547198771554,2025-04-26 18h29.16.458088 +0200,
block/CondBlock1.xlsx,You are about to start a block of type 1 trials.,76,76,0,Go,Go,0.14,0.2,0.05,space,green,vertical,space,3.6961850999796297,None,space,1,0.3818126999831293,None,,,,0,0,0,0,0,76,76,76,305.2630048999854,,,,,,,,,,,,,,,,305.24738309998065,305.2630048999854,305.963082799979,305.963082799979,306.46309589999146,306.44719419998,306.44787809997797,306.46309589999146,306.61299749999307,306.79628369997954,306.79628369997954,307.18156309999176,space,1,0.3818126999831293,None,307.1863520999905,307.6963913999789,308.6963385999843,308.6803886999842,,,,,,,,,,,,,,,,,003b,001,2025-04-26_18h29.09.565,Cued GoNogo Task,2024.2.4,60.01547198771554,2025-04-26 18h29.16.458088 +0200,
block/CondBlock1.xlsx,You are about to start a block of type 1 trials.,77,77,0,Go,Go,0.18,0.05,0.2,space,green,horizontal,space,3.6961850999796297,None,space,1,0.40419449997716583,None,,,,0,0,0,0,0,77,77,77,308.6963385999843,,,,,,,,,,,,,,,,308.6807179999887,308.6963385999843,309.3963536999945,309.3963536999945,309.89642549998825,309.8806011999841,309.8813848999853,309.89642549998825,310.0797076000017,310.26297859998886,310.26297859998886,310.680978599994,space,1,0.40419449997716583,None,310.6847419999831,311.1964914999844,312.19639129997813,312.18036939998274,,,,,,,,,,,,,,,,,003b,001,2025-04-26_18h29.09.565,Cued GoNogo Task,2024.2.4,60.01547198771554,2025-04-26 18h29.16.458088 +0200,
block/CondBlock1.xlsx,You are about to start a block of type 1 trials.,78,78,0,NoGo,NoGo,0.27,0.05,0.2,none,blue,horizontal,space,3.6961850999796297,None,space,0,0.35634930001106113,None,,,,0,0,0,0,0,78,78,78,312.19639129997813,,,,,,,,,,,,,,,,312.1807084000029,312.19639129997813,312.8963789999834,312.8963789999834,313.39623250000295,313.3800564999983,313.3806010999833,313.39623250000295,313.6798959999869,313.8629102999985,313.8629102999985,314.23057369998423,space,0,0.35634930001106113,None,314.23566749997553,314.729616800003,315.7296604999865,315.71410859999014,,,,,,,,,,,,,,,,,003b,001,2025-04-26_18h29.09.565,Cued GoNogo Task,2024.2.4,60.01547198771554,2025-04-26 18h29.16.458088 +0200,
block/CondBlock1.xlsx,You are about to start a block of type 1 trials.,79,79,0,NoGo,NoGo,0.26,0.2,0.05,none,blue,vertical,space,3.6961850999796297,None,None,1,,,,,,0,0,0,0,0,79,79,79,315.7296604999865,,,,,,,,,,,,,,,,315.7143670999794,315.7296604999865,316.4296723000007,316.4296723000007,316.9296401999891,316.9140823999769,316.914964399999,316.9296401999891,317.1964048999944,317.39639809998334,317.39639809998334,317.8802254999755,None,1,,,317.8821519999765,318.37977309999405,319.3795426999859,319.3638918999932,317.89625319998595,317.89625319998595,,,,,,,,,,,,,,,003b,001,2025-04-26_18h29.09.565,Cued GoNogo Task,2024.2.4,60.01547198771554,2025-04-26 18h29.16.458088 +0200,
block/CondBlock1.xlsx,You are about to start a block of type 1 trials.,80,80,0,Go,Go,0.22,0.2,0.05,space,green,vertical,space,3.6961850999796297,None,space,1,0.43743279998307116,None,,,,0,0,0,0,0,80,80,80,319.3795426999859,,,,,,,,,,,,,,,,319.3642139000003,319.3795426999859,320.0794944999798,320.0794944999798,320.5797609000001,320.56411069998285,320.5648050000018,320.5797609000001,320.8130164000031,321.01294339998276,321.01294339998276,321.4646093999909,space,1,0.43743279998307116,None,321.46931210000184,321.97961069998564,322.97968029999174,322.9639961999783,,,,,,,,,,,,,,,,,003b,001,2025-04-26_18h29.09.565,Cued GoNogo Task,2024.2.4,60.01547198771554,2025-04-26 18h29.16.458088 +0200,
block/CondBlock1.xlsx,You are about to start a block of type 1 trials.,81,81,0,Go,Go,0.5,0.2,0.05,space,green,vertical,space,3.6961850999796297,None,space,1,0.33096609998028725,None,,,,0,0,0,0,0,81,81,81,322.97968029999174,,,,,,,,,,,,,,,,322.96432099997764,322.97968029999174,323.67964210000355,323.67964210000355,324.17969119999907,324.16360829997575,324.1641948999895,324.17969119999907,324.679770799994,324.87969269999303,324.87969269999303,325.21499009997933,space,1,0.33096609998028725,None,325.22097159997793,325.72988420000183,326.729611799994,326.71394759998657,,,,,,,,,,,,,,,,,003b,001,2025-04-26_18h29.09.565,Cued GoNogo Task,2024.2.4,60.01547198771554,2025-04-26 18h29.16.458088 +0200,
block/CondBlock1.xlsx,You are about to start a block of type 1 trials.,82,82,0,Go,Go,0.43,0.05,0.2,space,green,horizontal,space,3.6961850999796297,None,space,1,0.2963356999971438,None,,,,0,0,0,0,0,82,82,82,326.729611799994,,,,,,,,,,,,,,,,326.71425319998525,326.729611799994,327.4295829999901,327.4295829999901,327.929412700003,327.91324429999804,327.91366729998845,327.929412700003,328.3630089999933,328.54635349998716,328.54635349998716,328.8471674999746,space,1,0.2963356999971438,None,328.85016679999535,329.346504199988,330.3463403999922,330.33073849999346,,,,,,,,,,,,,,,,,003b,001,2025-04-26_18h29.09.565,Cued GoNogo Task,2024.2.4,60.01547198771554,2025-04-26 18h29.16.458088 +0200,
block/CondBlock1.xlsx,You are about to start a block of type 1 trials.,83,83,0,Go,Go,0.25,0.2,0.05,space,green,vertical,space,3.6961850999796297,None,space,1,0.2708807000017259,None,,,,0,0,0,0,0,83,83,83,330.3463403999922,,,,,,,,,,,,,,,,330.3311013999919,330.3463403999922,331.0462434999936,331.0462434999936,331.5464890000003,331.5305857999774,331.5312497999985,331.5464890000003,331.79619389999425,331.99645429998054,331.99645429998054,332.2808512999909,space,1,0.2708807000017259,None,332.28535819999524,332.79643399998895,333.79637939998065,333.7803045999899,,,,,,,,,,,,,,,,,003b,001,2025-04-26_18h29.09.565,Cued GoNogo Task,2024.2.4,60.01547198771554,2025-04-26 18h29.16.458088 +0200,
block/CondBlock1.xlsx,You are about to start a block of type 1 trials.,84,84,0,NoGo,NoGo,0.14,0.2,0.05,none,green,vertical,space,3.6961850999796297,None,space,0,0.28091100000892766,None,,,,0,0,0,0,0,84,84,84,333.79637939998065,,,,,,,,,,,,,,,,333.7805470000021,333.79637939998065,334.4962975999806,334.4962975999806,334.9964282999863,334.98034059998463,334.9809240999748,334.9964282999863,335.1461867999751,335.32975119998446,335.32975119998446,335.61423219999415,space,0,0.28091100000892766,None,335.6187747999793,336.1297514999751,337.1299335999938,337.11392949998844,,,,,,,,,,,,,,,,,003b,001,2025-04-26_18h29.09.565,Cued GoNogo Task,2024.2.4,60.01547198771554,2025-04-26 18h29.16.458088 +0200,
block/CondBlock1.xlsx,You are about to start a block of type 1 trials.,85,85,0,Go,Go,0.2,0.05,0.2,space,blue,horizontal,space,3.6961850999796297,None,space,1,0.4333733000094071,None,,,,0,0,0,0,0,85,85,85,337.1299335999938,,,,,,,,,,,,,,,,337.11426839997876,337.1299335999938,337.8297384000034,337.8297384000034,338.3296724999964,338.3137206999818,338.31429280000157,338.3296724999964,338.529824199999,338.7296298999863,338.7296298999863,339.1652639999811,space,1,0.4333733000094071,None,339.1694196999888,339.67962369997986,340.6797340999765,340.6637635999941,,,,,,,,,,,,,,,,,003b,001,2025-04-26_18h29.09.565,Cued GoNogo Task,2024.2.4,60.01547198771554,2025-04-26 18h29.16.458088 +0200,
block/CondBlock1.xlsx,You are about to start a block of type 1 trials.,86,86,0,Go,Go,0.16,0.2,0.05,space,blue,vertical,space,3.6961850999796297,None,space,1,0.3253815999778453,None,,,,0,0,0,0,0,86,86,86,340.6797340999765,,,,,,,,,,,,,,,,340.66407999998773,340.6797340999765,341.3796538999886,341.3796538999886,341.8797503999958,341.86382239998784,341.8645770000003,341.8797503999958,342.0464482999814,342.22994859999744,342.22994859999744,342.564309999987,space,1,0.3253815999778453,None,342.5683502999891,343.0796509999782,344.0796618000022,344.0639020999952,,,,,,,,,,,,,,,,,003b,001,2025-04-26_18h29.09.565,Cued GoNogo Task,2024.2.4,60.01547198771554,2025-04-26 18h29.16.458088 +0200,
block/CondBlock1.xlsx,You are about to start a block of type 1 trials.,87,87,0,Go,Go,0.41,0.2,0.05,space,green,vertical,space,3.6961850999796297,None,None,0,,,,,,0,0,0,0,0,87,87,87,344.0796618000022,,,,,,,,,,,,,,,,344.0642253999831,344.0796618000022,344.77962590000243,344.77962590000243,345.2797384999867,345.2640477999812,345.2648076999758,345.2797384999867,345.6964648999856,345.8798278000031,345.8798278000031,346.3640089999826,None,0,,,346.36802309998893,346.879860999994,347.87963679997483,347.8638521999819,346.37965409999015,346.37965409999015,,,,,,,,,,,,,,,003b,001,2025-04-26_18h29.09.565,Cued GoNogo Task,2024.2.4,60.01547198771554,2025-04-26 18h29.16.458088 +0200,
block/CondBlock1.xlsx,You are about to start a block of type 1 trials.,88,88,0,NoGo,NoGo,0.15,0.2,0.05,none,green,vertical,space,3.6961850999796297,None,None,1,,,,,,0,0,0,0,0,88,88,88,347.87963679997483,,,,,,,,,,,,,,,,347.86414809999405,347.87963679997483,348.57951939999475,348.57951939999475,349.0797161999799,349.0636673999834,349.06433319998905,349.0797161999799,349.2298030999955,349.41307759998017,349.41307759998017,349.89726199998404,None,1,,,349.89947720000055,350.3963676999847,351.39634059998207,351.3808725999843,349.91295739999623,349.91295739999623,,,,,,,,,,,,,,,003b,001,2025-04-26_18h29.09.565,Cued GoNogo Task,2024.2.4,60.01547198771554,2025-04-26 18h29.16.458088 +0200,
block/CondBlock1.xlsx,You are about to start a block of type 1 trials.,89,89,0,Go,Go,0.24,0.05,0.2,space,blue,horizontal,space,3.6961850999796297,None,space,1,0.34080900001572445,None,,,,0,0,0,0,0,89,89,89,351.39634059998207,,,,,,,,,,,,,,,,351.38123649999034,351.39634059998207,352.09631259998423,352.09631259998423,352.5964308999828,352.58043659999385,352.58102699997835,352.5964308999828,352.8462881000014,353.04629089997616,353.04629089997616,353.3975203000009,space,1,0.34080900001572445,None,353.40067740000086,353.91277049999917,354.91307149999193,354.89695490000304,,,,,,,,,,,,,,,,,003b,001,2025-04-26_18h29.09.565,Cued GoNogo Task,2024.2.4,60.01547198771554,2025-04-26 18h29.16.458088 +0200,
block/CondBlock1.xlsx,You are about to start a block of type 1 trials.,90,90,0,Go,Go,0.25,0.2,0.05,space,blue,vertical,space,3.6961850999796297,None,space,1,0.37614539999049157,None,,,,0,0,0,0,0,90,90,90,354.91307149999193,,,,,,,,,,,,,,,,354.89720579999266,354.91307149999193,355.6130659999908,355.6130659999908,356.1130413999781,356.0971775999933,356.09783959999913,356.1130413999781,356.3628519999911,356.56285950000165,356.56285950000165,356.9469718999753,space,1,0.37614539999049157,None,356.9499263999751,357.44642490000115,358.44631879997905,358.43018080000184,,,,,,,,,,,,,,,,,003b,001,2025-04-26_18h29.09.565,Cued GoNogo Task,2024.2.4,60.01547198771554,2025-04-26 18h29.16.458088 +0200,
block/CondBlock1.xlsx,You are about to start a block of type 1 trials.,91,91,0,Go,Go,0.26,0.05,0.2,space,green,horizontal,space,3.6961850999796297,None,space,1,0.2169014000101015,None,,,,0,0,0,0,0,91,91,91,358.44631879997905,,,,,,,,,,,,,,,,358.43039500000305,358.44631879997905,359.14642659999663,359.14642659999663,359.6463899999799,359.6305071999959,359.6312124999822,359.6463899999799,359.9130327999883,360.11299319998943,360.11299319998943,360.3330510999949,space,1,0.2169014000101015,None,360.33875929997885,360.84635290000006,361.8464494999789,361.8305468999897,,,,,,,,,,,,,,,,,003b,001,2025-04-26_18h29.09.565,Cued GoNogo Task,2024.2.4,60.01547198771554,2025-04-26 18h29.16.458088 +0200,
block/CondBlock1.xlsx,You are about to start a block of type 1 trials.,92,92,0,NoGo,NoGo,0.44,0.2,0.05,none,blue,vertical,space,3.6961850999796297,None,space,0,0.25035409998963587,None,,,,0,0,0,0,0,92,92,92,361.8464494999789,,,,,,,,,,,,,,,,361.83085289999144,361.8464494999789,362.5463127999974,362.5463127999974,363.0463921999908,363.03078419997473,363.0314792999998,363.0463921999908,363.49637539999094,363.67984339999384,363.67984339999384,363.9471372999833,space,0,0.25035409998963587,None,363.95055109998793,364.4465201999992,365.4463560000004,365.4306804999942,,,,,,,,,,,,,,,,,003b,001,2025-04-26_18h29.09.565,Cued GoNogo Task,2024.2.4,60.01547198771554,2025-04-26 18h29.16.458088 +0200,
block/CondBlock1.xlsx,You are about to start a block of type 1 trials.,93,93,0,Go,Go,0.13,0.2,0.05,space,green,vertical,space,3.6961850999796297,None,space,1,0.2791350000188686,None,,,,0,0,0,0,0,93,93,93,365.4463560000004,,,,,,,,,,,,,,,,365.4310273999872,365.4463560000004,366.146431799978,366.146431799978,366.6462165999983,366.63021289999597,366.6305869999924,366.6462165999983,366.77960310000344,366.9799362999911,366.9799362999911,367.26486809999915,space,1,0.2791350000188686,None,367.2715089999838,367.7797030999791,368.7795763000031,368.76399459998356,,,,,,,,,,,,,,,,,003b,001,2025-04-26_18h29.09.565,Cued GoNogo Task,2024.2.4,60.01547198771554,2025-04-26 18h29.16.458088 +0200,
block/CondBlock1.xlsx,You are about to start a block of type 1 trials.,94,94,0,Go,Go,0.44,0.05,0.2,space,blue,horizontal,space,3.6961850999796297,None,space,1,0.3591119000047911,None,,,,0,0,0,0,0,94,94,94,368.7795763000031,,,,,,,,,,,,,,,,368.76431849997607,368.7795763000031,369.47964399997727,369.47964399997727,369.979792899976,369.963791999995,369.96439009997994,369.979792899976,370.4297716000001,370.6131393999967,370.6131393999967,370.98073949999525,space,1,0.3591119000047911,None,370.9848378000024,371.4798506999796,372.4797649999964,372.46386069999426,,,,,,,,,,,,,,,,,003b,001,2025-04-26_18h29.09.565,Cued GoNogo Task,2024.2.4,60.01547198771554,2025-04-26 18h29.16.458088 +0200,
block/CondBlock1.xlsx,You are about to start a block of type 1 trials.,95,95,0,Go,Go,0.15,0.2,0.05,space,green,vertical,space,3.6961850999796297,None,space,1,0.02873259998159483,None,,,,0,0,0,0,0,95,95,95,372.4797649999964,,,,,,,,,,,,,,,,372.4641950999794,372.4797649999964,373.1796960999782,373.1796960999782,373.6797355999879,373.6640245000017,373.6648564999923,373.6797355999879,373.829826399975,374.046360599983,374.046360599983,374.08100289999857,space,1,0.02873259998159483,None,374.0846772999794,374.57977139999275,375.57980009997846,375.56405889999587,,,,,,,,,,,,,,,,,003b,001,2025-04-26_18h29.09.565,Cued GoNogo Task,2024.2.4,60.01547198771554,2025-04-26 18h29.16.458088 +0200,
block/CondBlock1.xlsx,You are about to start a block of type 1 trials.,96,96,0,Go,Go,0.49,0.2,0.05,space,green,vertical,space,3.6961850999796297,None,space,1,0.4502302999899257,None,,,,0,0,0,0,0,96,96,96,375.57980009997846,,,,,,,,,,,,,,,,375.5644078999758,375.59644399999524,376.29637659998843,376.29637659998843,376.7963435999991,376.780589699978,376.7813277999812,376.7963435999991,377.2964077999932,377.4796955999918,377.4796955999918,377.9326172999863,space,1,0.4502302999899257,None,377.93765509998775,378.4462568000017,379.44660649998696,379.4307314000034,,,,,,,,,,,,,,,,,003b,001,2025-04-26_18h29.09.565,Cued GoNogo Task,2024.2.4,60.01547198771554,2025-04-26 18h29.16.458088 +0200,
block/CondBlock1.xlsx,You are about to start a block of type 1 trials.,97,97,0,Go,Go,0.11,0.2,0.05,space,blue,vertical,space,3.6961850999796297,None,space,1,0.312306300009368,None,,,,0,0,0,0,0,97,97,97,379.44660649998696,,,,,,,,,,,,,,,,379.4310266999819,379.44660649998696,380.1466196999827,380.1466196999827,380.64641439999104,380.6307145000028,380.6315162999963,380.64641439999104,380.76312190000317,380.94647719999193,380.94647719999193,381.26420759997563,space,1,0.312306300009368,None,381.26799019999453,381.77969100000337,382.77963949998957,382.7636355999857,,,,,,,,,,,,,,,,,003b,001,2025-04-26_18h29.09.565,Cued GoNogo Task,2024.2.4,60.01547198771554,2025-04-26 18h29.16.458088 +0200,
block/CondBlock1.xlsx,You are about to start a block of type 1 trials.,98,98,0,Go,Go,0.26,0.05,0.2,space,green,horizontal,space,3.6961850999796297,None,space,1,0.23758239997550845,None,,,,0,0,0,0,0,98,98,98,382.77963949998957,,,,,,,,,,,,,,,,382.7638979999756,382.77963949998957,383.47956330000306,383.47956330000306,383.9798726000008,383.9638132999826,383.9644915999961,383.9798726000008,384.24636709998595,384.42963459997554,384.42963459997554,384.68078830000013,space,1,0.23758239997550845,None,384.68424669999513,385.1796599999943,386.1797474999912,386.16391360000125,,,,,,,,,,,,,,,,,003b,001,2025-04-26_18h29.09.565,Cued GoNogo Task,2024.2.4,60.01547198771554,2025-04-26 18h29.16.458088 +0200,
block/CondBlock1.xlsx,You are about to start a block of type 1 trials.,99,99,0,Go,Go,0.28,0.05,0.2,space,green,horizontal,space,3.6961850999796297,None,space,1,0.35585050002555363,None,,,,0,0,0,0,0,99,99,99,386.1797474999912,,,,,,,,,,,,,,,,386.1642909999937,386.19642589997966,386.8964428999752,386.8964428999752,387.39643149997573,387.3805731999746,387.3812654999783,387.39643149997573,387.6797414999746,387.86316700000316,387.86316700000316,388.23068849998526,space,1,0.35585050002555363,None,388.2355316999892,388.72985360000166,389.73088389998884,389.71400279999943,,,,,,,,,,,,,,,,,003b,001,2025-04-26_18h29.09.565,Cued GoNogo Task,2024.2.4,60.01547198771554,2025-04-26 18h29.16.458088 +0200,
block/CondBlock1.xlsx,You are about to start a block of type 1 trials.,0,0,0,,,,,,,,,space,3.6961850999796297,None,,,,,space,295.1917618000007,None,0,0,0,0,,,,,,,,,,,,,,,,,,,,,,,,,,,,,,,,,,,,,,,,,,,389.72877859999426,389.73088389998884,389.73088389998884,684.9307541000016,space,295.1917618000007,None,,,,,,,,003b,001,2025-04-26_18h29.09.565,Cued GoNogo Task,2024.2.4,60.01547198771554,2025-04-26 18h29.16.458088 +0200,
block/CondBlock2.xlsx,You are about to start a block of type 2 trials.,0,0,0,Go,Go,0.18,0.05,0.2,space,green,horizontal,space,3.735837700020056,None,space,1,0.13069789999281056,None,,,,0,1,1,1,0,0,0,0,688.7350627999986,,,,,,,,,684.934488799976,684.9465535999916,684.9465535999916,688.6978140999854,space,3.735837700020056,None,688.7327173999802,688.7350627999986,689.4132710999984,689.4465611999913,689.9132914999791,689.8972022999951,689.8978905999975,689.9132914999791,690.0964250999968,690.2797766999865,690.2797766999865,690.4144628999929,space,1,0.13069789999281056,None,690.4186095999903,690.9298611999839,691.9300060999813,691.9141943999857,,,,,,,,,,,,,,,,,003b,001,2025-04-26_18h29.09.565,Cued GoNogo Task,2024.2.4,60.01547198771554,2025-04-26 18h29.16.458088 +0200,
block/CondBlock2.xlsx,You are about to start a block of type 2 trials.,1,1,0,Go,Go,0.2,0.2,0.05,space,green,vertical,space,3.735837700020056,None,space,1,0.2247192999930121,None,,,,0,1,1,1,0,1,1,1,691.9300060999813,,,,,,,,,,,,,,,,691.914643199998,691.9300060999813,692.6299521999899,692.6299521999899,693.1297648999898,693.1143812999944,693.1151750999852,693.1297648999898,693.3297762000002,693.5298200999969,693.5298200999969,693.7643519999983,space,1,0.2247192999930121,None,693.7682943999826,694.2797278999933,695.2798190999893,695.2637870999752,,,,,,,,,,,,,,,,,003b,001,2025-04-26_18h29.09.565,Cued GoNogo Task,2024.2.4,60.01547198771554,2025-04-26 18h29.16.458088 +0200,
block/CondBlock2.xlsx,You are about to start a block of type 2 trials.,2,2,0,Go,Go,0.22,0.05,0.2,space,blue,horizontal,space,3.735837700020056,None,space,1,0.09070420000352897,None,,,,0,1,1,1,0,2,2,2,695.2798190999893,,,,,,,,,,,,,,,,695.2640320999781,695.2798190999893,695.9796932000027,695.9796932000027,696.4797497999971,696.4641118999862,696.4646859999921,696.4797497999971,696.7131493999914,696.896617099992,696.896617099992,696.9975768000004,space,1,0.09070420000352897,None,697.0026668999926,697.5133321999747,698.5131388999871,698.4974559999828,,,,,,,,,,,,,,,,,003b,001,2025-04-26_18h29.09.565,Cued GoNogo Task,2024.2.4,60.01547198771554,2025-04-26 18h29.16.458088 +0200,
block/CondBlock2.xlsx,You are about to start a block of type 2 trials.,3,3,0,Go,Go,0.14,0.05,0.2,space,green,horizontal,space,3.735837700020056,None,space,1,0.15592990000732243,None,,,,0,1,1,1,0,3,3,3,698.5131388999871,,,,,,,,,,,,,,,,698.4978486999753,698.5131388999871,699.2130708999757,699.2130708999757,699.7133912999998,699.6970528999809,699.697752499982,699.7133912999998,699.8633321999805,700.0464693999966,700.0464693999966,700.2146658999845,space,1,0.15592990000732243,None,700.2175801999983,700.7299023999949,701.7299861999927,701.7136686999875,,,,,,,,,,,,,,,,,003b,001,2025-04-26_18h29.09.565,Cued GoNogo Task,2024.2.4,60.01547198771554,2025-04-26 18h29.16.458088 +0200,
block/CondBlock2.xlsx,You are about to start a block of type 2 trials.,4,4,0,Go,Go,0.26,0.05,0.2,space,blue,horizontal,space,3.735837700020056,None,space,1,0.11856339999940246,None,,,,0,1,1,1,0,4,4,4,701.7299861999927,,,,,,,,,,,,,,,,701.713895199995,701.7299861999927,702.4297341999772,702.4297341999772,702.9298224999802,702.9139724999841,702.9146375999844,702.9298224999802,703.196220999991,703.3795555999968,703.3795555999968,703.5138459999871,space,1,0.11856339999940246,None,703.5170803999936,704.0131323999958,705.0129929999821,704.9974412999873,,,,,,,,,,,,,,,,,003b,001,2025-04-26_18h29.09.565,Cued GoNogo Task,2024.2.4,60.01547198771554,2025-04-26 18h29.16.458088 +0200,
block/CondBlock2.xlsx,You are about to start a block of type 2 trials.,5,5,0,Go,Go,0.1,0.05,0.2,space,blue,horizontal,space,3.735837700020056,None,space,1,0.3133711999980733,None,,,,0,1,1,1,0,5,5,5,705.0129929999821,,,,,,,,,,,,,,,,704.997770499991,705.0129929999821,705.7131739000033,705.7131739000033,706.2130750999786,706.197413499991,706.1979884000029,706.2130750999786,706.3132757999992,706.513300199993,706.513300199993,706.8308088999765,space,1,0.3133711999980733,None,706.8335929999885,707.3298308999802,708.329847999994,708.313779499993,,,,,,,,,,,,,,,,,003b,001,2025-04-26_18h29.09.565,Cued GoNogo Task,2024.2.4,60.01547198771554,2025-04-26 18h29.16.458088 +0200,
block/CondBlock2.xlsx,You are about to start a block of type 2 trials.,6,6,0,NoGo,NoGo,0.3,0.2,0.05,none,green,vertical,space,3.735837700020056,None,None,1,,,,,,0,1,1,1,0,6,6,6,708.329847999994,,,,,,,,,,,,,,,,708.3140469999926,708.346624799975,709.0464217999834,709.0464217999834,709.5466332999931,709.5304302999866,709.5309988999797,709.5466332999931,709.8466742000019,710.0465227999957,710.0465227999957,710.5311205999751,None,1,,,710.5364934999961,711.0465993999969,712.0466273999773,712.0305841999943,710.5466815999825,710.5466815999825,,,,,,,,,,,,,,,003b,001,2025-04-26_18h29.09.565,Cued GoNogo Task,2024.2.4,60.01547198771554,2025-04-26 18h29.16.458088 +0200,
block/CondBlock2.xlsx,You are about to start a block of type 2 trials.,7,7,0,NoGo,NoGo,0.14,0.05,0.2,none,blue,horizontal,space,3.735837700020056,None,None,1,,,,,,0,1,1,1,0,7,7,7,712.0466273999773,,,,,,,,,,,,,,,,712.0308357999893,712.0466273999773,712.7466489999788,712.7466489999788,713.2464208999882,713.2305005999806,713.2312135999964,713.2464208999882,713.3965701999841,713.5798116999795,713.5798116999795,714.0639792000002,None,1,,,714.0644327999908,714.5630483999848,715.5632656999805,715.5474345999828,714.0798241999873,714.0798241999873,,,,,,,,,,,,,,,003b,001,2025-04-26_18h29.09.565,Cued GoNogo Task,2024.2.4,60.01547198771554,2025-04-26 18h29.16.458088 +0200,
block/CondBlock2.xlsx,You are about to start a block of type 2 trials.,8,8,0,Go,Go,0.13,0.2,0.05,space,blue,vertical,space,3.735837700020056,None,space,1,0.3696652000071481,None,,,,0,1,1,1,0,8,8,8,715.5632656999805,,,,,,,,,,,,,,,,715.5477261999913,715.5632656999805,716.2630102999974,716.2630102999974,716.763083400001,716.7473035999865,716.7479958999902,716.763083400001,716.8963764999935,717.0964375999756,717.0964375999756,717.4809800999938,space,1,0.3696652000071481,None,717.4847362999863,717.9964738999843,718.9963032999949,718.9807007999916,,,,,,,,,,,,,,,,,003b,001,2025-04-26_18h29.09.565,Cued GoNogo Task,2024.2.4,60.01547198771554,2025-04-26 18h29.16.458088 +0200,
block/CondBlock2.xlsx,You are about to start a block of type 2 trials.,9,9,0,Go,Go,0.43,0.2,0.05,space,green,vertical,space,3.735837700020056,None,space,1,0.23859590000938624,None,,,,0,1,1,1,0,9,9,9,718.9963032999949,,,,,,,,,,,,,,,,718.9810058999865,718.9963032999949,719.696392199985,719.696392199985,720.1966164999758,720.1805137999763,720.1810887999891,720.1966164999758,720.6298994999961,720.8133652999823,720.8133652999823,721.0642525999865,space,1,0.23859590000938624,None,721.0677666999982,721.5633311999845,722.5631941999891,722.5473813999852,,,,,,,,,,,,,,,,,003b,001,2025-04-26_18h29.09.565,Cued GoNogo Task,2024.2.4,60.01547198771554,2025-04-26 18h29.16.458088 +0200,
block/CondBlock2.xlsx,You are about to start a block of type 2 trials.,10,10,0,Go,Go,0.14,0.2,0.05,space,green,vertical,space,3.735837700020056,None,space,1,0.44255300000077114,None,,,,0,1,1,1,0,10,10,10,722.5631941999891,,,,,,,,,,,,,,,,722.5477667999803,722.5799877999816,723.2799864999834,723.2799864999834,723.7800288999861,723.7642374999996,723.765007399983,723.7800288999861,723.9294897999789,724.1131022999762,724.1131022999762,724.5644125999825,space,1,0.44255300000077114,None,724.568423699995,725.0798878999776,726.0797865999921,726.0639525000006,,,,,,,,,,,,,,,,,003b,001,2025-04-26_18h29.09.565,Cued GoNogo Task,2024.2.4,60.01547198771554,2025-04-26 18h29.16.458088 +0200,
block/CondBlock2.xlsx,You are about to start a block of type 2 trials.,11,11,0,Go,Go,0.27,0.2,0.05,space,green,vertical,space,3.735837700020056,None,space,1,0.24856489998637699,None,,,,0,1,1,1,0,11,11,11,726.0797865999921,,,,,,,,,,,,,,,,726.0642909999879,726.0797865999921,726.7798064999806,726.7798064999806,727.2798873999855,727.2637940999994,727.2643142000015,727.2798873999855,727.5633001999813,727.7466609999829,727.7466609999829,727.9984629999963,space,1,0.24856489998637699,None,728.0027232999855,728.5131009999895,729.513180399983,729.4972367000009,,,,,,,,,,,,,,,,,003b,001,2025-04-26_18h29.09.565,Cued GoNogo Task,2024.2.4,60.01547198771554,2025-04-26 18h29.16.458088 +0200,
block/CondBlock2.xlsx,You are about to start a block of type 2 trials.,12,12,0,Go,Go,0.3,0.05,0.2,space,green,horizontal,space,3.735837700020056,None,space,1,0.30098470000666566,None,,,,0,1,1,1,0,12,12,12,729.513180399983,,,,,,,,,,,,,,,,729.4974929000018,729.513180399983,730.2132188999967,730.2132188999967,730.7131386999972,730.6971424999938,730.6977155999921,730.7131386999972,731.0131846999866,731.2131978999823,731.2131978999823,731.5307630999887,space,1,0.30098470000666566,None,731.5344974999898,732.0297219999775,733.0297614999872,733.013727499987,,,,,,,,,,,,,,,,,003b,001,2025-04-26_18h29.09.565,Cued GoNogo Task,2024.2.4,60.01547198771554,2025-04-26 18h29.16.458088 +0200,
block/CondBlock2.xlsx,You are about to start a block of type 2 trials.,13,13,0,Go,Go,0.18,0.2,0.05,space,blue,vertical,space,3.735837700020056,None,space,1,0.24540469999192283,None,,,,0,1,1,1,0,13,13,13,733.0297614999872,,,,,,,,,,,,,,,,733.0139527999854,733.0297614999872,733.7300586999918,733.7300586999918,734.229688499996,734.214083400002,734.214725400001,734.229688499996,734.4131048999843,734.6133661999775,734.6133661999775,734.8642561000015,space,1,0.24540469999192283,None,734.8677176999918,735.3799534999998,736.3798667999799,736.3637276999943,,,,,,,,,,,,,,,,,003b,001,2025-04-26_18h29.09.565,Cued GoNogo Task,2024.2.4,60.01547198771554,2025-04-26 18h29.16.458088 +0200,
block/CondBlock2.xlsx,You are about to start a block of type 2 trials.,14,14,0,Go,Go,0.13,0.2,0.05,space,green,vertical,space,3.735837700020056,None,space,1,0.16187899999204092,None,,,,0,1,1,1,0,14,14,14,736.3798667999799,,,,,,,,,,,,,,,,736.363978999987,736.3798667999799,737.0798398999905,737.0798398999905,737.5797635999916,737.5638144999975,737.5643019999843,737.5797635999916,737.7131299999892,737.8965238999808,737.8965238999808,738.0645521999977,space,1,0.16187899999204092,None,738.0694924999843,738.5799066999753,739.5798337000015,739.5638620999816,,,,,,,,,,,,,,,,,003b,001,2025-04-26_18h29.09.565,Cued GoNogo Task,2024.2.4,60.01547198771554,2025-04-26 18h29.16.458088 +0200,
block/CondBlock2.xlsx,You are about to start a block of type 2 trials.,15,15,0,Go,Go,0.18,0.2,0.05,space,blue,vertical,space,3.735837700020056,None,space,1,0.15963179999380372,None,,,,0,1,1,1,0,15,15,15,739.5798337000015,,,,,,,,,,,,,,,,739.564120199997,739.5798337000015,740.2798168000008,740.2798168000008,740.779812599998,740.763981600001,740.764534899994,740.779812599998,740.9632389999751,741.1465898999886,741.1465898999886,741.3141024999786,space,1,0.15963179999380372,None,741.3176551999932,741.8300669000018,742.8298393999867,742.814146699995,,,,,,,,,,,,,,,,,003b,001,2025-04-26_18h29.09.565,Cued GoNogo Task,2024.2.4,60.01547198771554,2025-04-26 18h29.16.458088 +0200,
block/CondBlock2.xlsx,You are about to start a block of type 2 trials.,16,16,0,Go,Go,0.24,0.2,0.05,space,green,vertical,space,3.735837700020056,None,space,1,0.2832877000037115,None,,,,0,1,1,1,0,16,16,16,742.8298393999867,,,,,,,,,,,,,,,,742.8144485999946,742.8298393999867,743.5131564999756,743.529793499998,744.0132424999902,743.9973060999764,743.9979435999994,744.0132424999902,744.2631081999862,744.4630998999928,744.4630998999928,744.7487400999817,space,1,0.2832877000037115,None,744.7526171999925,745.2631899999978,746.2632028999797,746.2469938999857,,,,,,,,,,,,,,,,,003b,001,2025-04-26_18h29.09.565,Cued GoNogo Task,2024.2.4,60.01547198771554,2025-04-26 18h29.16.458088 +0200,
block/CondBlock2.xlsx,You are about to start a block of type 2 trials.,17,17,0,Go,Go,0.26,0.2,0.05,space,blue,vertical,space,3.735837700020056,None,space,1,0.2743250000057742,None,,,,0,1,1,1,0,17,17,17,746.2632028999797,,,,,,,,,,,,,,,,746.2472159999888,746.2632028999797,746.9637527999876,746.9637527999876,747.4632024999883,747.4476118999883,747.4483721999859,747.4632024999883,747.7299835000013,747.9133548999962,747.9133548999962,748.1976752999763,space,1,0.2743250000057742,None,748.2013417999842,748.7131231999956,749.7130795999838,749.6974894999876,,,,,,,,,,,,,,,,,003b,001,2025-04-26_18h29.09.565,Cued GoNogo Task,2024.2.4,60.01547198771554,2025-04-26 18h29.16.458088 +0200,
block/CondBlock2.xlsx,You are about to start a block of type 2 trials.,18,18,0,Go,Go,0.1,0.05,0.2,space,blue,horizontal,space,3.735837700020056,None,space,1,0.301045600004727,None,,,,0,1,1,1,0,18,18,18,749.7130795999838,,,,,,,,,,,,,,,,749.6977865999797,749.7130795999838,750.4131264000025,750.4131264000025,750.9132117999834,750.8974106999813,750.8981430999993,750.9132117999834,751.0130577999807,751.2131379999919,751.2131379999919,751.5314664999896,space,1,0.301045600004727,None,751.5371731999912,752.0467973999912,753.0464897999773,753.0307950999995,,,,,,,,,,,,,,,,,003b,001,2025-04-26_18h29.09.565,Cued GoNogo Task,2024.2.4,60.01547198771554,2025-04-26 18h29.16.458088 +0200,
block/CondBlock2.xlsx,You are about to start a block of type 2 trials.,19,19,0,Go,Go,0.46,0.2,0.05,space,blue,vertical,space,3.735837700020056,None,space,1,0.16981339998892508,None,,,,0,1,1,1,0,19,19,19,753.0464897999773,,,,,,,,,,,,,,,,753.0311627999763,753.0464897999773,753.7465155999816,753.7465155999816,754.2464470999839,754.230609899998,754.2312864999985,754.2464470999839,754.7132013999799,754.8964909999922,754.8964909999922,755.0811857999943,space,1,0.16981339998892508,None,755.0855421999877,755.5965784,756.5963629999897,756.5807666999754,,,,,,,,,,,,,,,,,003b,001,2025-04-26_18h29.09.565,Cued GoNogo Task,2024.2.4,60.01547198771554,2025-04-26 18h29.16.458088 +0200,
block/CondBlock2.xlsx,You are about to start a block of type 2 trials.,20,20,0,Go,Go,0.3,0.05,0.2,space,blue,horizontal,space,3.735837700020056,None,space,1,0.14600599999539554,None,,,,0,1,1,1,0,20,20,20,756.5963629999897,,,,,,,,,,,,,,,,756.5810816999874,756.5963629999897,757.2965435999795,757.2965435999795,757.7966358999838,757.7807448999956,757.7816397999995,757.7966358999838,758.0963677999971,758.2966422000027,758.2966422000027,758.4481038999802,space,1,0.14600599999539554,None,758.4521284999792,758.9632753999904,759.9632172999845,759.9474064999959,,,,,,,,,,,,,,,,,003b,001,2025-04-26_18h29.09.565,Cued GoNogo Task,2024.2.4,60.01547198771554,2025-04-26 18h29.16.458088 +0200,
block/CondBlock2.xlsx,You are about to start a block of type 2 trials.,21,21,0,Go,Go,0.23,0.05,0.2,space,green,horizontal,space,3.735837700020056,None,space,1,0.14312389999395236,None,,,,0,1,1,1,0,21,21,21,759.9632172999845,,,,,,,,,,,,,,,,759.9477858000027,759.9632172999845,760.6631438999902,760.6631438999902,761.1631390999828,761.1472712999966,761.147911899985,761.1631390999828,761.3965469999821,761.5799698999908,761.5799698999908,761.7311623999849,space,1,0.14312389999395236,None,761.7348603999999,762.2465304999787,763.2465799999773,763.2305040999781,,,,,,,,,,,,,,,,,003b,001,2025-04-26_18h29.09.565,Cued GoNogo Task,2024.2.4,60.01547198771554,2025-04-26 18h29.16.458088 +0200,
block/CondBlock2.xlsx,You are about to start a block of type 2 trials.,22,22,0,Go,Go,0.19,0.2,0.05,space,green,vertical,space,3.735837700020056,None,space,1,0.09358750001410954,None,,,,0,1,1,1,0,22,22,22,763.2465799999773,,,,,,,,,,,,,,,,763.2307527999801,763.2465799999773,763.9463906000019,763.9463906000019,764.4465029999847,764.4308082999778,764.431534000003,764.4465029999847,764.6465532000002,764.829805699992,764.829805699992,764.9318694999965,space,1,0.09358750001410954,None,764.9375215999899,765.4467985999945,766.4464502999908,766.4305823999748,,,,,,,,,,,,,,,,,003b,001,2025-04-26_18h29.09.565,Cued GoNogo Task,2024.2.4,60.01547198771554,2025-04-26 18h29.16.458088 +0200,
block/CondBlock2.xlsx,You are about to start a block of type 2 trials.,23,23,0,NoGo,NoGo,0.41,0.2,0.05,none,blue,vertical,space,3.735837700020056,None,space,0,0.1167254000029061,None,,,,0,1,1,1,0,23,23,23,766.4464502999908,,,,,,,,,,,,,,,,766.4310455999803,766.4464502999908,767.1464806000004,767.1464806000004,767.6465924999793,767.630443299975,767.6310340999917,767.6465924999793,768.0632974999899,768.2465601000004,768.2465601000004,768.365262199979,space,0,0.1167254000029061,None,768.3697195999848,768.8797253999801,769.8799865999899,769.8637617999921,,,,,,,,,,,,,,,,,003b,001,2025-04-26_18h29.09.565,Cued GoNogo Task,2024.2.4,60.01547198771554,2025-04-26 18h29.16.458088 +0200,
block/CondBlock2.xlsx,You are about to start a block of type 2 trials.,24,24,0,Go,Go,0.17,0.2,0.05,space,blue,vertical,space,3.735837700020056,None,space,1,0.25974850001512095,None,,,,0,1,1,1,0,24,24,24,769.8799865999899,,,,,,,,,,,,,,,,769.8640161999792,769.8799865999899,770.5799479999987,770.5799479999987,771.0800053999992,771.0643226999964,771.0653140999784,771.0800053999992,771.2630359999894,771.4466605999914,771.4466605999914,771.7144873999932,space,1,0.25974850001512095,None,771.7193515999825,772.2300405999995,773.2297189999954,773.2139236999792,,,,,,,,,,,,,,,,,003b,001,2025-04-26_18h29.09.565,Cued GoNogo Task,2024.2.4,60.01547198771554,2025-04-26 18h29.16.458088 +0200,
block/CondBlock2.xlsx,You are about to start a block of type 2 trials.,25,25,0,Go,Go,0.27,0.05,0.2,space,blue,horizontal,space,3.735837700020056,None,space,1,0.1059378000209108,None,,,,0,1,1,1,0,25,25,25,773.2297189999954,,,,,,,,,,,,,,,,773.2141972999962,773.2297189999954,773.9294642999885,773.9294642999885,774.429888499988,774.4140738999995,774.4148529999948,774.429888499988,774.7131630999793,774.8964671999856,774.8964671999856,775.0143989999779,space,1,0.1059378000209108,None,775.0184742999845,775.529869799997,776.5301562999957,776.5139175999793,,,,,,,,,,,,,,,,,003b,001,2025-04-26_18h29.09.565,Cued GoNogo Task,2024.2.4,60.01547198771554,2025-04-26 18h29.16.458088 +0200,
block/CondBlock2.xlsx,You are about to start a block of type 2 trials.,26,26,0,Go,Go,0.26,0.05,0.2,space,green,horizontal,space,3.735837700020056,None,space,1,0.24722319998545572,None,,,,0,1,1,1,0,26,26,26,776.5301562999957,,,,,,,,,,,,,,,,776.5142048999842,776.5301562999957,777.2299019999919,777.2299019999919,777.7298584999808,777.7140301999752,777.7147336999769,777.7298584999808,777.9964376999997,778.1797304999782,778.1797304999782,778.4310785999987,space,1,0.24722319998545572,None,778.4349668999785,778.9465322000033,779.9466285999806,779.9307795999921,,,,,,,,,,,,,,,,,003b,001,2025-04-26_18h29.09.565,Cued GoNogo Task,2024.2.4,60.01547198771554,2025-04-26 18h29.16.458088 +0200,
block/CondBlock2.xlsx,You are about to start a block of type 2 trials.,27,27,0,Go,Go,0.22,0.2,0.05,space,green,vertical,space,3.735837700020056,None,space,1,0.4631208000064362,None,,,,0,1,1,1,0,27,27,27,779.9466285999806,,,,,,,,,,,,,,,,779.931099999987,779.9466285999806,780.646511400002,780.646511400002,781.1467370000028,781.1310045999999,781.1319686999777,781.1467370000028,781.3799226999981,781.563212899986,781.563212899986,782.0310789999785,space,1,0.4631208000064362,None,782.0345031000033,782.5464839999913,783.5465714999882,783.5309239999915,,,,,,,,,,,,,,,,,003b,001,2025-04-26_18h29.09.565,Cued GoNogo Task,2024.2.4,60.01547198771554,2025-04-26 18h29.16.458088 +0200,
block/CondBlock2.xlsx,You are about to start a block of type 2 trials.,28,28,0,Go,Go,0.19,0.05,0.2,space,blue,horizontal,space,3.735837700020056,None,space,1,0.305310499999905,None,,,,0,1,1,1,0,28,28,28,783.5465714999882,,,,,,,,,,,,,,,,783.5312886000029,783.5465714999882,784.2465465999849,784.2465465999849,784.7466293999751,784.7308877999894,784.7315120999992,784.7466293999751,784.9465552999754,785.1299070999958,785.1299070999958,785.4482745999994,space,1,0.305310499999905,None,785.4537542999897,785.9633743999875,786.9632289999863,786.9472432999755,,,,,,,,,,,,,,,,,003b,001,2025-04-26_18h29.09.565,Cued GoNogo Task,2024.2.4,60.01547198771554,2025-04-26 18h29.16.458088 +0200,
block/CondBlock2.xlsx,You are about to start a block of type 2 trials.,29,29,0,Go,Go,0.18,0.05,0.2,space,blue,horizontal,space,3.735837700020056,None,space,1,0.40815040000597946,None,,,,0,1,1,1,0,29,29,29,786.9632289999863,,,,,,,,,,,,,,,,786.9475647999789,786.9632289999863,787.6633052999969,787.6633052999969,788.1631773999834,788.1471002000035,788.1478102999972,788.1631773999834,788.3465236999909,788.529870600003,788.529870600003,788.9474788999942,space,1,0.40815040000597946,None,788.9513640999794,789.4467782999855,790.4464569999836,790.4304076999833,,,,,,,,,,,,,,,,,003b,001,2025-04-26_18h29.09.565,Cued GoNogo Task,2024.2.4,60.01547198771554,2025-04-26 18h29.16.458088 +0200,
block/CondBlock2.xlsx,You are about to start a block of type 2 trials.,30,30,0,NoGo,NoGo,0.23,0.2,0.05,none,blue,vertical,space,3.735837700020056,None,space,0,0.23463659998378716,None,,,,0,1,1,1,0,30,30,30,790.4464569999836,,,,,,,,,,,,,,,,790.4306561999838,790.4464569999836,791.1464802999981,791.1464802999981,791.6464577000006,791.6305868999916,791.631267299992,791.6464577000006,791.8800823999918,792.0799333999748,792.0799333999748,792.3314166999771,space,0,0.23463659998378716,None,792.3364989999973,792.8467292999849,793.8465624999953,793.8305727999832,,,,,,,,,,,,,,,,,003b,001,2025-04-26_18h29.09.565,Cued GoNogo Task,2024.2.4,60.01547198771554,2025-04-26 18h29.16.458088 +0200,
block/CondBlock2.xlsx,You are about to start a block of type 2 trials.,31,31,0,Go,Go,0.43,0.2,0.05,space,green,vertical,space,3.735837700020056,None,None,0,,,,,,0,1,1,1,0,31,31,31,793.8465624999953,,,,,,,,,,,,,,,,793.8308347999991,793.8465624999953,794.5465489999915,794.5465489999915,795.046534299996,795.0305453999899,795.0310769999924,795.046534299996,795.4798545999802,795.6631894999882,795.6631894999882,796.1468764999881,None,0,,,796.1495107999945,796.6466587999894,797.6463674999832,797.6307295000006,796.1629873999918,796.1629873999918,,,,,,,,,,,,,,,003b,001,2025-04-26_18h29.09.565,Cued GoNogo Task,2024.2.4,60.01547198771554,2025-04-26 18h29.16.458088 +0200,
block/CondBlock2.xlsx,You are about to start a block of type 2 trials.,32,32,0,Go,Go,0.13,0.05,0.2,space,blue,horizontal,space,3.735837700020056,None,None,0,,,,,,0,1,1,1,0,32,32,32,797.6463674999832,,,,,,,,,,,,,,,,797.6309737999982,797.6463674999832,798.3465842999867,798.3465842999867,798.8465233999887,798.8305328999995,798.8311213999987,798.8465233999887,798.9799307999783,799.1799839999876,799.1799839999876,799.6643375999993,None,0,,,799.6649600999954,800.1798896999971,801.1797548999893,801.1637844999786,799.6798291000014,799.6798291000014,,,,,,,,,,,,,,,003b,001,2025-04-26_18h29.09.565,Cued GoNogo Task,2024.2.4,60.01547198771554,2025-04-26 18h29.16.458088 +0200,
block/CondBlock2.xlsx,You are about to start a block of type 2 trials.,33,33,0,Go,Go,0.45,0.05,0.2,space,green,horizontal,space,3.735837700020056,None,space,1,0.21252760000061244,None,,,,0,1,1,1,0,33,33,33,801.1797548999893,,,,,,,,,,,,,,,,801.1640476999746,801.1797548999893,801.8797680999851,801.8797680999851,802.3798401999811,802.3639156999998,802.3645120000001,802.3798401999811,802.8300368999771,803.0297655999893,803.0297655999893,803.2478413999779,space,1,0.21252760000061244,None,803.251832399983,803.76316089998,804.7631967999914,804.7473251999763,,,,,,,,,,,,,,,,,003b,001,2025-04-26_18h29.09.565,Cued GoNogo Task,2024.2.4,60.01547198771554,2025-04-26 18h29.16.458088 +0200,
block/CondBlock2.xlsx,You are about to start a block of type 2 trials.,34,34,0,Go,Go,0.14,0.2,0.05,space,blue,vertical,space,3.735837700020056,None,space,1,0.2911982000223361,None,,,,0,1,1,1,0,34,34,34,804.7631967999914,,,,,,,,,,,,,,,,804.7476137999911,804.7631967999914,805.4632845000015,805.4632845000015,805.9632793999917,805.9472187999927,805.9478649999946,805.9632793999917,806.1133055999817,806.2965732000011,806.2965732000011,806.5976949000033,space,1,0.2911982000223361,None,806.6021044999943,807.0965913999826,808.096690299979,808.0805948999769,,,,,,,,,,,,,,,,,003b,001,2025-04-26_18h29.09.565,Cued GoNogo Task,2024.2.4,60.01547198771554,2025-04-26 18h29.16.458088 +0200,
block/CondBlock2.xlsx,You are about to start a block of type 2 trials.,35,35,0,Go,Go,0.11,0.2,0.05,space,blue,vertical,space,3.735837700020056,None,space,1,0.2693042999890167,None,,,,0,1,1,1,0,35,35,35,808.096690299979,,,,,,,,,,,,,,,,808.0808695000014,808.1132529999886,808.8133469999884,808.8133469999884,809.3133976999961,809.2975787999749,809.2984170999844,809.3133976999961,809.4298334999767,809.6133337999927,809.6133337999927,809.8975592999777,space,1,0.2693042999890167,None,809.9009886999847,810.4132108999765,811.413307699986,811.3971727000026,,,,,,,,,,,,,,,,,003b,001,2025-04-26_18h29.09.565,Cued GoNogo Task,2024.2.4,60.01547198771554,2025-04-26 18h29.16.458088 +0200,
block/CondBlock2.xlsx,You are about to start a block of type 2 trials.,36,36,0,Go,Go,0.15,0.05,0.2,space,green,horizontal,space,3.735837700020056,None,space,1,0.27973549999296665,None,,,,0,1,1,1,0,36,36,36,811.413307699986,,,,,,,,,,,,,,,,811.3974326000025,811.413307699986,812.1131517999747,812.1131517999747,812.6132773999998,812.5971813999931,812.597776199982,812.6132773999998,812.7632562999788,812.9464324,812.9464324,813.2307757999806,space,1,0.27973549999296665,None,813.2341044999775,813.7297302999941,814.7298231000022,814.7140172999934,,,,,,,,,,,,,,,,,003b,001,2025-04-26_18h29.09.565,Cued GoNogo Task,2024.2.4,60.01547198771554,2025-04-26 18h29.16.458088 +0200,
block/CondBlock2.xlsx,You are about to start a block of type 2 trials.,37,37,0,Go,Go,0.15,0.2,0.05,space,green,vertical,space,3.735837700020056,None,space,1,0.33835950001957826,None,,,,0,1,1,1,0,37,37,37,814.7298231000022,,,,,,,,,,,,,,,,814.7143026999838,814.7298231000022,815.4297690999811,815.4297690999811,815.9298288999998,815.9138023999985,815.9143814999843,815.9466996999981,816.0965377999819,816.2797639999771,816.2797639999771,816.6307369999995,space,1,0.33835950001957826,None,816.634066300001,817.129976999975,818.1298516999814,818.1138945999846,,,,,,,,,,,,,,,,,003b,001,2025-04-26_18h29.09.565,Cued GoNogo Task,2024.2.4,60.01547198771554,2025-04-26 18h29.16.458088 +0200,
block/CondBlock2.xlsx,You are about to start a block of type 2 trials.,38,38,0,NoGo,NoGo,0.14,0.2,0.05,none,green,vertical,space,3.735837700020056,None,space,0,0.15467469999566674,None,,,,0,1,1,1,0,38,38,38,818.1298516999814,,,,,,,,,,,,,,,,818.1141862999939,818.1298516999814,818.8298861999938,818.8298861999938,819.3299354999908,819.3137929999793,819.3143230999995,819.3299354999908,819.4797856999794,819.6799592000025,819.6799592000025,819.848060999997,space,0,0.15467469999566674,None,819.8536420000019,820.363157099986,821.3630507999915,821.3473452999897,,,,,,,,,,,,,,,,,003b,001,2025-04-26_18h29.09.565,Cued GoNogo Task,2024.2.4,60.01547198771554,2025-04-26 18h29.16.458088 +0200,
block/CondBlock2.xlsx,You are about to start a block of type 2 trials.,39,39,0,Go,Go,0.46,0.2,0.05,space,green,vertical,space,3.735837700020056,None,None,0,,,,,,0,1,1,1,0,39,39,39,821.3630507999915,,,,,,,,,,,,,,,,821.3476015999913,821.3630507999915,822.0633192999812,822.0633192999812,822.5632030999986,822.5472352999786,822.5478270000021,822.5632030999986,823.0299690999964,823.2131263999909,823.2131263999909,823.6973460000008,None,0,,,823.6998574000027,824.1965961999958,825.1966913999931,825.1806613999943,823.7131248999794,823.7131248999794,,,,,,,,,,,,,,,003b,001,2025-04-26_18h29.09.565,Cued GoNogo Task,2024.2.4,60.01547198771554,2025-04-26 18h29.16.458088 +0200,
block/CondBlock2.xlsx,You are about to start a block of type 2 trials.,40,40,0,Go,Go,0.5,0.05,0.2,space,blue,horizontal,space,3.735837700020056,None,space,1,0.3065409999981057,None,,,,0,1,1,1,0,40,40,40,825.1966913999931,,,,,,,,,,,,,,,,825.1809794000001,825.1966913999931,825.8965575999755,825.8965575999755,826.3965300999989,826.3810060999822,826.3819078999804,826.3965300999989,826.8965727999748,827.0964606999769,827.0964606999769,827.4144016999926,space,1,0.3065409999981057,None,827.4190953999932,827.9299255999795,828.9296964999812,828.9142790999904,,,,,,,,,,,,,,,,,003b,001,2025-04-26_18h29.09.565,Cued GoNogo Task,2024.2.4,60.01547198771554,2025-04-26 18h29.16.458088 +0200,
