Block,blockMsg,thisN,thisTrialN,thisRepN,CueType,StimType,CueTime,Stim_Height,Stim_Width,CRESP,Color,Orientation,key_resp_2.keys,key_resp_2.rt,key_resp_2.duration,Key_Resp.keys,Key_Resp.corr,Key_Resp.rt,Key_Resp.duration,key_resp_3.keys,key_resp_3.rt,key_resp_3.duration,Blocks.thisRepN,Blocks.thisTrialN,Blocks.thisN,Blocks.thisIndex,Trials.thisRepN,Trials.thisTrialN,Trials.thisN,Trials.thisIndex,thisRow.t,notes,TaskIntro.started,fixation.started,key_resp.started,TaskIntro.stopped,key_resp.keys,key_resp.rt,key_resp.duration,BlockStart.started,BlockStart_Msg.started,key_resp_2.started,BlockStart.stopped,Blocks.key_resp_2.keys,Blocks.key_resp_2.rt,Blocks.key_resp_2.duration,Fixation.started,FixationPhase.started,Blank.started,FixationPhase.stopped,Blank.stopped,Fixation.stopped,Trial.started,Cue.started,Cue.stopped,GoNogo_Stim.started,Key_Resp.started,Trial.stopped,Trials.Key_Resp.keys,Trials.Key_Resp.corr,Trials.Key_Resp.rt,Trials.Key_Resp.duration,Feedback.started,Feedback_Present.started,Feedback_Present.stopped,Feedback.stopped,GoNogo_Stim.stopped,Key_Resp.stopped,BlockEnd.started,BlockEnd_Msg.started,key_resp_3.started,BlockEnd.stopped,Blocks.key_resp_3.keys,Blocks.key_resp_3.rt,Blocks.key_resp_3.duration,TaskEnd.started,ThankYou.started,key_resp_4.started,TaskEnd.stopped,key_resp_4.keys,key_resp_4.rt,key_resp_4.duration,participant,session,date,expName,psychopyVersion,frameRate,expStart,
,,,,,,,,,,,,,,,,,,,,,,,,,,,,,,,,,0.0015290000010281801,0.004024500027298927,0.004024500027298927,38.65426990005653,space,38.63503799994942,None,,,,,,,,,,,,,,,,,,,,,,,,,,,,,,,,,,,,,,,,,,,,003,001,2025-04-29_23h02.18.097,Cued GoNogo Task,2024.2.4,60.02188400579458,2025-04-29 23h02.26.136104 +0200,
block/CondBlock1.xlsx,You are about to start a block of type 1 trials.,0,0,0,Go,Go,0.13,0.05,0.2,space,blue,horizontal,space,1.364985499996692,None,space,1,0.18736039998475462,None,,,,0,0,0,0,0,0,0,0,40.10265260003507,,,,,,,,,38.662999400054105,38.66725729999598,38.66725729999598,40.03463940008078,space,1.364985499996692,None,40.09967620007228,40.10265260003507,40.748810500022955,40.815424800035544,41.248592899995856,41.23254940006882,41.23311570007354,41.248592899995856,41.38171640003566,41.564987200079486,41.564987200079486,41.76613940007519,space,1,0.18736039998475462,None,41.77724389999639,42.28106329997536,43.280180700006895,43.26457650004886,,,,,,,,,,,,,,,,,003,001,2025-04-29_23h02.18.097,Cued GoNogo Task,2024.2.4,60.02188400579458,2025-04-29 23h02.26.136104 +0200,
block/CondBlock1.xlsx,You are about to start a block of type 1 trials.,1,1,0,NoGo,NoGo,0.43,0.05,0.2,none,blue,horizontal,space,1.364985499996692,None,None,1,,,,,,0,0,0,0,0,1,1,1,43.280180700006895,,,,,,,,,,,,,,,,43.26495280000381,43.280180700006895,43.9796424000524,43.9796424000524,44.47929859999567,44.4637002000818,44.4645620000083,44.47929859999567,44.91222779999953,45.09543790004682,45.09543790004682,45.57917250005994,None,1,,,45.58290769997984,46.0945179000264,47.093734099995345,47.07824070006609,45.59480730001815,45.59480730001815,,,,,,,,,,,,,,,003,001,2025-04-29_23h02.18.097,Cued GoNogo Task,2024.2.4,60.02188400579458,2025-04-29 23h02.26.136104 +0200,
block/CondBlock1.xlsx,You are about to start a block of type 1 trials.,2,2,0,Go,Go,0.12,0.2,0.05,space,blue,vertical,space,1.364985499996692,None,space,1,0.12683119997382164,None,,,,0,0,0,0,0,2,2,2,47.093734099995345,,,,,,,,,,,,,,,,47.07861540000886,47.093734099995345,47.79313180001918,47.79313180001918,48.29271670000162,48.276541300001554,48.27707599999849,48.29271670000162,48.42607420007698,48.609100400004536,48.609100400004536,48.74357599997893,space,1,0.12683119997382164,None,48.749835500027984,49.258773599984124,50.257750699995086,50.242030600085855,,,,,,,,,,,,,,,,,003,001,2025-04-29_23h02.18.097,Cued GoNogo Task,2024.2.4,60.02188400579458,2025-04-29 23h02.26.136104 +0200,
block/CondBlock1.xlsx,You are about to start a block of type 1 trials.,3,3,0,NoGo,NoGo,0.18,0.2,0.05,none,green,vertical,space,1.364985499996692,None,None,1,,,,,,0,0,0,0,0,3,3,3,50.257750699995086,,,,,,,,,,,,,,,,50.242315600044094,50.257750699995086,50.95710690005217,50.95710690005217,51.456848700065166,51.440981100080535,51.44177969999146,51.456848700065166,51.64000920008402,51.823195600067265,51.823195600067265,52.30692950007506,None,1,,,52.30943250004202,52.82230680005159,53.8214420999866,53.805498700006865,52.32260319998022,52.32260319998022,,,,,,,,,,,,,,,003,001,2025-04-29_23h02.18.097,Cued GoNogo Task,2024.2.4,60.02188400579458,2025-04-29 23h02.26.136104 +0200,
block/CondBlock1.xlsx,You are about to start a block of type 1 trials.,4,4,0,Go,Go,0.24,0.05,0.2,space,green,horizontal,space,1.364985499996692,None,space,1,0.18501689995173365,None,,,,0,0,0,0,0,4,4,4,53.8214420999866,,,,,,,,,,,,,,,,53.80581589997746,53.8214420999866,54.5209861000767,54.5209861000767,55.020416200044565,55.004643300082535,55.00524540001061,55.020416200044565,55.270165299996734,55.45345310005359,55.45345310005359,55.654566499986686,space,1,0.18501689995173365,None,55.6600242999848,56.1694884999888,57.168768399977125,57.15262499998789,,,,,,,,,,,,,,,,,003,001,2025-04-29_23h02.18.097,Cued GoNogo Task,2024.2.4,60.02188400579458,2025-04-29 23h02.26.136104 +0200,
block/CondBlock1.xlsx,You are about to start a block of type 1 trials.,5,5,0,Go,Go,0.21,0.05,0.2,space,blue,horizontal,space,1.364985499996692,None,space,1,0.03193269995972514,None,,,,0,0,0,0,0,5,5,5,57.168768399977125,,,,,,,,,,,,,,,,57.15283090004232,57.168768399977125,57.86811769998167,57.86811769998167,58.36778299999423,58.35206020006444,58.35271830006968,58.36778299999423,58.58433480001986,58.76757899997756,58.76757899997756,58.80221800005529,space,1,0.03193269995972514,None,58.8062131999759,59.31712929997593,60.316164100077,60.300132300006226,,,,,,,,,,,,,,,,,003,001,2025-04-29_23h02.18.097,Cued GoNogo Task,2024.2.4,60.02188400579458,2025-04-29 23h02.26.136104 +0200,
block/CondBlock1.xlsx,You are about to start a block of type 1 trials.,6,6,0,Go,Go,0.11,0.2,0.05,space,blue,vertical,space,1.364985499996692,None,space,1,0.1930998999159783,None,,,,0,0,0,0,0,6,6,6,60.316164100077,,,,,,,,,,,,,,,,60.30032260005828,60.316164100077,61.015635600080714,61.015635600080714,61.515099100070074,61.499250299995765,61.4999501000857,61.515099100070074,61.631815499975346,61.81502290000208,61.81502290000208,62.01656460005324,space,1,0.1930998999159783,None,62.02227610000409,62.53116560005583,63.530301599996164,63.514460999984294,,,,,,,,,,,,,,,,,003,001,2025-04-29_23h02.18.097,Cued GoNogo Task,2024.2.4,60.02188400579458,2025-04-29 23h02.26.136104 +0200,
block/CondBlock1.xlsx,You are about to start a block of type 1 trials.,7,7,0,Go,Go,0.15,0.2,0.05,space,blue,vertical,space,1.364985499996692,None,space,1,0.13561480003409088,None,,,,0,0,0,0,0,7,7,7,63.530301599996164,,,,,,,,,,,,,,,,63.51487489999272,63.530301599996164,64.22973110002931,64.22973110002931,64.72902109997813,64.71298399998341,64.7134244000772,64.72902109997813,64.87920780002605,65.07897110003978,65.07897110003978,65.2296613000799,space,1,0.13561480003409088,None,65.23344059998635,65.74494680005591,66.74425560003147,66.72818340000231,,,,,,,,,,,,,,,,,003,001,2025-04-29_23h02.18.097,Cued GoNogo Task,2024.2.4,60.02188400579458,2025-04-29 23h02.26.136104 +0200,
block/CondBlock1.xlsx,You are about to start a block of type 1 trials.,8,8,0,NoGo,NoGo,0.3,0.05,0.2,none,blue,horizontal,space,1.364985499996692,None,space,0,0.21176039997953922,None,,,,0,0,0,0,0,8,8,8,66.74425560003147,,,,,,,,,,,,,,,,66.72839509998448,66.74425560003147,67.44364840001799,67.44364840001799,67.94315030006692,67.9277088000672,67.92863830004353,67.94315030006692,68.24296780000441,68.44284630008042,68.44284630008042,68.66059910005424,space,0,0.21176039997953922,None,68.66902929998469,69.17545820004307,70.17473610001616,70.15887360007036,,,,,,,,,,,,,,,,,003,001,2025-04-29_23h02.18.097,Cued GoNogo Task,2024.2.4,60.02188400579458,2025-04-29 23h02.26.136104 +0200,
block/CondBlock1.xlsx,You are about to start a block of type 1 trials.,9,9,0,NoGo,NoGo,0.17,0.05,0.2,none,blue,horizontal,space,1.364985499996692,None,None,1,,,,,,0,0,0,0,0,9,9,9,70.17473610001616,,,,,,,,,,,,,,,,70.1592114000814,70.17473610001616,70.87421959999483,70.87421959999483,71.37398440006655,71.35739270003978,71.35783810005523,71.37398440006655,71.55702320009004,71.74004750000313,71.74004750000313,72.2237993000308,None,1,,,72.22634310007561,72.73919240001123,73.73843740008306,73.72256270004436,72.23977390001528,72.23977390001528,,,,,,,,,,,,,,,003,001,2025-04-29_23h02.18.097,Cued GoNogo Task,2024.2.4,60.02188400579458,2025-04-29 23h02.26.136104 +0200,
block/CondBlock1.xlsx,You are about to start a block of type 1 trials.,10,10,0,NoGo,NoGo,0.26,0.2,0.05,none,green,vertical,space,1.364985499996692,None,None,1,,,,,,0,0,0,0,0,10,10,10,73.73843740008306,,,,,,,,,,,,,,,,73.72287599998526,73.73843740008306,74.43797680002172,74.43797680002172,74.93744390003849,74.92158040008508,74.9223891000729,74.93744390003849,75.2038536000764,75.38714970008004,75.38714970008004,75.87069700006396,None,1,,,75.87113980005961,76.36970010004006,77.36877519998234,77.3528952000197,75.88673580007162,75.88673580007162,,,,,,,,,,,,,,,003,001,2025-04-29_23h02.18.097,Cued GoNogo Task,2024.2.4,60.02188400579458,2025-04-29 23h02.26.136104 +0200,
block/CondBlock1.xlsx,You are about to start a block of type 1 trials.,11,11,0,Go,Go,0.27,0.05,0.2,space,green,horizontal,space,1.364985499996692,None,space,1,0.10897619999013841,None,,,,0,0,0,0,0,11,11,11,77.36877519998234,,,,,,,,,,,,,,,,77.35326280002482,77.38555000000633,78.08501480007544,78.08501480007544,78.58429530006833,78.56871820008382,78.56939399999101,78.58429530006833,78.86757240002044,79.05086010007653,79.05086010007653,79.16920580004808,space,1,0.10897619999013841,None,79.175515800016,79.68356000003405,80.68261610006448,80.66663170000538,,,,,,,,,,,,,,,,,003,001,2025-04-29_23h02.18.097,Cued GoNogo Task,2024.2.4,60.02188400579458,2025-04-29 23h02.26.136104 +0200,
block/CondBlock1.xlsx,You are about to start a block of type 1 trials.,12,12,0,Go,Go,0.16,0.2,0.05,space,green,vertical,space,1.364985499996692,None,space,1,0.22363669995684177,None,,,,0,0,0,0,0,12,12,12,80.68261610006448,,,,,,,,,,,,,,,,80.66689870005939,80.68261610006448,81.38226940005552,81.38226940005552,81.88176180003211,81.86569790006615,81.8662398000015,81.88176180003211,82.04819690005388,82.23139380000066,82.23139380000066,82.46570310008246,space,1,0.22363669995684177,None,82.46984949999023,82.98084680002648,83.98006450000685,83.96444940008223,,,,,,,,,,,,,,,,,003,001,2025-04-29_23h02.18.097,Cued GoNogo Task,2024.2.4,60.02188400579458,2025-04-29 23h02.26.136104 +0200,
block/CondBlock1.xlsx,You are about to start a block of type 1 trials.,13,13,0,Go,Go,0.13,0.2,0.05,space,green,vertical,space,1.364985499996692,None,space,1,0.2003496999386698,None,,,,0,0,0,0,0,13,13,13,83.98006450000685,,,,,,,,,,,,,,,,83.96480730001349,83.98006450000685,84.6794116999954,84.6794116999954,85.17903340002522,85.16314499999862,85.16405590006616,85.17903340002522,85.31223709997721,85.49538720003329,85.49538720003329,85.69901450001635,space,1,0.2003496999386698,None,85.70441130001564,86.2115917999763,87.2106529000448,87.19508209999185,,,,,,,,,,,,,,,,,003,001,2025-04-29_23h02.18.097,Cued GoNogo Task,2024.2.4,60.02188400579458,2025-04-29 23h02.26.136104 +0200,
block/CondBlock1.xlsx,You are about to start a block of type 1 trials.,14,14,0,Go,Go,0.12,0.05,0.2,space,blue,horizontal,space,1.364985499996692,None,space,1,0.2814017999917269,None,,,,0,0,0,0,0,14,14,14,87.2106529000448,,,,,,,,,,,,,,,,87.19537930004299,87.2106529000448,87.91013860004023,87.91013860004023,88.40980800008401,88.39399470004719,88.39486540004145,88.40980800008401,88.54312160005793,88.72629020002205,88.72629020002205,89.01100320008118,space,1,0.2814017999917269,None,89.0157760999864,89.52550910005812,90.52458630001638,90.50866300007328,,,,,,,,,,,,,,,,,003,001,2025-04-29_23h02.18.097,Cued GoNogo Task,2024.2.4,60.02188400579458,2025-04-29 23h02.26.136104 +0200,
block/CondBlock1.xlsx,You are about to start a block of type 1 trials.,15,15,0,Go,Go,0.45,0.2,0.05,space,blue,vertical,space,1.364985499996692,None,space,1,0.2756713000126183,None,,,,0,0,0,0,0,15,15,15,90.52458630001638,,,,,,,,,,,,,,,,90.5089270999888,90.52458630001638,91.22394160006661,91.22394160006661,91.72383030003402,91.7076222000178,91.70818389998749,91.72383030003402,92.17316880007274,92.37312000000384,92.37312000000384,92.65729150001425,space,1,0.2756713000126183,None,92.66140440001618,93.17235950008035,94.17165789997671,94.15543450007681,,,,,,,,,,,,,,,,,003,001,2025-04-29_23h02.18.097,Cued GoNogo Task,2024.2.4,60.02188400579458,2025-04-29 23h02.26.136104 +0200,
block/CondBlock1.xlsx,You are about to start a block of type 1 trials.,16,16,0,NoGo,NoGo,0.14,0.2,0.05,none,green,vertical,space,1.364985499996692,None,None,1,,,,,,0,0,0,0,0,16,16,16,94.17165789997671,,,,,,,,,,,,,,,,94.1556975999847,94.17165789997671,94.87106280005537,94.87106280005537,95.37066690006759,95.35465420002583,95.35529320000205,95.37066690006759,95.52050049998797,95.70364090008661,95.70364090008661,96.18754519999493,None,1,,,96.19004670006689,96.70302460005041,97.70211670000572,97.68612750002649,96.20317220001016,96.20317220001016,,,,,,,,,,,,,,,003,001,2025-04-29_23h02.18.097,Cued GoNogo Task,2024.2.4,60.02188400579458,2025-04-29 23h02.26.136104 +0200,
block/CondBlock1.xlsx,You are about to start a block of type 1 trials.,17,17,0,Go,Go,0.12,0.05,0.2,space,green,horizontal,space,1.364985499996692,None,space,1,0.038036900106817484,None,,,,0,0,0,0,0,17,17,17,97.70211670000572,,,,,,,,,,,,,,,,97.68643480003811,97.70211670000572,98.401547400048,98.401547400048,98.90114600001834,98.88518730003852,98.88572700007353,98.90114600001834,99.03435850003734,99.21745440002996,99.21745440002996,99.26857359998394,space,1,0.038036900106817484,None,99.27246930007823,99.78371300001163,100.78303450008389,100.76723800005857,,,,,,,,,,,,,,,,,003,001,2025-04-29_23h02.18.097,Cued GoNogo Task,2024.2.4,60.02188400579458,2025-04-29 23h02.26.136104 +0200,
block/CondBlock1.xlsx,You are about to start a block of type 1 trials.,18,18,0,Go,Go,0.47,0.2,0.05,space,blue,vertical,space,1.364985499996692,None,space,1,0.20038449997082353,None,,,,0,0,0,0,0,18,18,18,100.78303450008389,,,,,,,,,,,,,,,,100.76758630003314,100.78303450008389,101.48233889997937,101.48233889997937,101.981753100059,101.96599659998901,101.96665329998359,101.981753100059,102.46512130007613,102.64807600004133,102.64807600004133,102.86558049998712,space,1,0.20038449997082353,None,102.86996490007732,103.38063610007521,104.37990529998206,104.36390620004386,,,,,,,,,,,,,,,,,003,001,2025-04-29_23h02.18.097,Cued GoNogo Task,2024.2.4,60.02188400579458,2025-04-29 23h02.26.136104 +0200,
block/CondBlock1.xlsx,You are about to start a block of type 1 trials.,19,19,0,Go,Go,0.18,0.2,0.05,space,green,vertical,space,1.364985499996692,None,space,1,0.23755269998218864,None,,,,0,0,0,0,0,19,19,19,104.37990529998206,,,,,,,,,,,,,,,,104.36421770008747,104.37990529998206,105.07919319998473,105.07919319998473,105.57894889998715,105.56322590005584,105.56402900000103,105.57894889998715,105.76202760008164,105.9453882999951,105.9453882999951,106.19624249998014,space,1,0.23755269998218864,None,106.20043520000763,106.71128849999513,107.7105532999849,107.69469240005128,,,,,,,,,,,,,,,,,003,001,2025-04-29_23h02.18.097,Cued GoNogo Task,2024.2.4,60.02188400579458,2025-04-29 23h02.26.136104 +0200,
block/CondBlock1.xlsx,You are about to start a block of type 1 trials.,20,20,0,Go,Go,0.19,0.2,0.05,space,blue,vertical,space,1.364985499996692,None,space,1,0.26752530003432184,None,,,,0,0,0,0,0,20,20,20,107.7105532999849,,,,,,,,,,,,,,,,107.69504490005784,107.7105532999849,108.40999559999909,108.40999559999909,108.90949200000614,108.89385840005707,108.89462899998762,108.90949200000614,109.10939640004653,109.2924420000054,109.2924420000054,109.57722390000708,space,1,0.26752530003432184,None,109.58212370006368,110.09182349999901,111.09122659999412,111.07490790006705,,,,,,,,,,,,,,,,,003,001,2025-04-29_23h02.18.097,Cued GoNogo Task,2024.2.4,60.02188400579458,2025-04-29 23h02.26.136104 +0200,
block/CondBlock1.xlsx,You are about to start a block of type 1 trials.,21,21,0,Go,Go,0.14,0.2,0.05,space,blue,vertical,space,1.364985499996692,None,space,1,0.2967186999740079,None,,,,0,0,0,0,0,21,21,21,111.09122659999412,,,,,,,,,,,,,,,,111.07515699998476,111.09122659999412,111.79060690000188,111.79060690000188,112.289912700071,112.27382070000749,112.2743067999836,112.289912700071,112.44007010001224,112.6230887999991,112.6230887999991,112.92455860006157,space,1,0.2967186999740079,None,112.92987530003302,113.43915410002228,114.43820820003748,114.4225050000241,,,,,,,,,,,,,,,,,003,001,2025-04-29_23h02.18.097,Cued GoNogo Task,2024.2.4,60.02188400579458,2025-04-29 23h02.26.136104 +0200,
block/CondBlock1.xlsx,You are about to start a block of type 1 trials.,22,22,0,Go,Go,0.15,0.2,0.05,space,blue,vertical,space,1.364985499996692,None,space,1,0.2999969000229612,None,,,,0,0,0,0,0,22,22,22,114.43820820003748,,,,,,,,,,,,,,,,114.42282960005105,114.43820820003748,115.13766370003577,115.13766370003577,115.63737270003185,115.62098470004275,115.62142720003612,115.63737270003185,115.78726770007052,115.987099400023,115.987099400023,116.28918790002353,space,1,0.2999969000229612,None,116.29201920004562,116.80327809997834,,117.80241920007393,,,,,,,,,,,,,,,,,003,001,2025-04-29_23h02.18.097,Cued GoNogo Task,2024.2.4,60.02188400579458,2025-04-29 23h02.26.136104 +0200,
block/CondBlock1.xlsx,You are about to start a block of type 1 trials.,23,23,0,Go,Go,0.23,0.05,0.2,space,green,horizontal,space,1.364985499996692,None,space,1,0.3163823999930173,None,,,,0,0,0,0,0,23,23,23,117.81882879999466,,,,,,,,,,,,,,,,117.80292180005927,117.81882879999466,118.50184030004311,118.51821560005192,119.00122149998788,118.98532820004039,118.98591819999274,119.00122149998788,119.23426559998188,119.43435640004463,119.43435640004463,119.7531042000046,space,1,0.3163823999930173,None,119.75680680002552,120.26689030008856,121.26632759999484,121.24992269999348,,,,,,,,,,,,,,,,,003,001,2025-04-29_23h02.18.097,Cued GoNogo Task,2024.2.4,60.02188400579458,2025-04-29 23h02.26.136104 +0200,
block/CondBlock1.xlsx,You are about to start a block of type 1 trials.,24,24,0,Go,Go,0.2,0.2,0.05,space,blue,vertical,space,1.364985499996692,None,space,1,0.29464330000337213,None,,,,0,0,0,0,0,24,24,24,121.26632759999484,,,,,,,,,,,,,,,,121.25017520005349,121.26632759999484,121.9654880000744,121.9654880000744,122.46512469998561,122.4487959999824,122.44929310004227,122.46512469998561,122.66483860008884,122.86461669998243,122.86461669998243,123.165662500076,space,1,0.29464330000337213,None,123.17181089997757,123.6807201000629,124.67999530001543,124.66395359998569,,,,,,,,,,,,,,,,,003,001,2025-04-29_23h02.18.097,Cued GoNogo Task,2024.2.4,60.02188400579458,2025-04-29 23h02.26.136104 +0200,
block/CondBlock1.xlsx,You are about to start a block of type 1 trials.,25,25,0,Go,Go,0.15,0.2,0.05,space,blue,vertical,space,1.364985499996692,None,space,1,0.3153534000739455,None,,,,0,0,0,0,0,25,25,25,124.67999530001543,,,,,,,,,,,,,,,,124.6642237000633,124.67999530001543,125.37948540004436,125.37948540004436,125.87894890003372,125.86307560000569,125.86359480000101,125.87894890003372,126.02887989999726,126.2286424000049,126.2286424000049,126.54710810002871,space,1,0.3153534000739455,None,126.55090140004177,127.06115610001143,128.06040170008782,128.04466490005143,,,,,,,,,,,,,,,,,003,001,2025-04-29_23h02.18.097,Cued GoNogo Task,2024.2.4,60.02188400579458,2025-04-29 23h02.26.136104 +0200,
block/CondBlock1.xlsx,You are about to start a block of type 1 trials.,26,26,0,NoGo,NoGo,0.2,0.2,0.05,none,blue,vertical,space,1.364985499996692,None,space,0,0.1330019999295473,None,,,,0,0,0,0,0,26,26,26,128.06040170008782,,,,,,,,,,,,,,,,128.0449956000084,128.06040170008782,128.75992560002487,128.75992560002487,129.25943430000916,129.24337100004777,129.24396300001536,129.25943430000916,129.45931070006918,129.65898850001395,129.65898850001395,129.79507940006442,space,0,0.1330019999295473,None,129.80005329998676,130.3085798000684,131.3076574000297,131.29175540001597,,,,,,,,,,,,,,,,,003,001,2025-04-29_23h02.18.097,Cued GoNogo Task,2024.2.4,60.02188400579458,2025-04-29 23h02.26.136104 +0200,
block/CondBlock1.xlsx,You are about to start a block of type 1 trials.,27,27,0,Go,Go,0.29,0.05,0.2,space,green,horizontal,space,1.364985499996692,None,space,1,0.24244070006534457,None,,,,0,0,0,0,0,27,27,27,131.3076574000297,,,,,,,,,,,,,,,,131.29205020004883,131.3076574000297,132.00737310003024,132.00737310003024,132.506698400015,132.49075660004746,132.49140449997503,132.506698400015,132.8063378999941,132.98965130001307,132.98965130001307,133.24059080006555,space,1,0.24244070006534457,None,133.2442457000725,133.7557938999962,134.75477600004524,134.73873420001473,,,,,,,,,,,,,,,,,003,001,2025-04-29_23h02.18.097,Cued GoNogo Task,2024.2.4,60.02188400579458,2025-04-29 23h02.26.136104 +0200,
block/CondBlock1.xlsx,You are about to start a block of type 1 trials.,28,28,0,Go,Go,0.24,0.2,0.05,space,blue,vertical,space,1.364985499996692,None,space,1,0.20431689999531955,None,,,,0,0,0,0,0,28,28,28,134.75477600004524,,,,,,,,,,,,,,,,134.73898979998194,134.75477600004524,135.45446100004483,135.45446100004483,135.95398250001017,135.93874960008543,135.93950860004406,135.95398250001017,136.20364050008357,136.38697300001513,136.38697300001513,136.60451179998927,space,1,0.20431689999531955,None,136.60858130000997,137.11971870006528,138.11890680005308,138.10271250002552,,,,,,,,,,,,,,,,,003,001,2025-04-29_23h02.18.097,Cued GoNogo Task,2024.2.4,60.02188400579458,2025-04-29 23h02.26.136104 +0200,
block/CondBlock1.xlsx,You are about to start a block of type 1 trials.,29,29,0,Go,Go,0.15,0.05,0.2,space,green,horizontal,space,1.364985499996692,None,space,1,0.31582060002256185,None,,,,0,0,0,0,0,29,29,29,138.11890680005308,,,,,,,,,,,,,,,,138.1029978999868,138.11890680005308,138.8182603000896,138.8182603000896,139.31766499998048,139.30186980008148,139.30249360005837,139.31766499998048,139.46768700005487,139.66772949998267,139.66772949998267,139.9854169000173,space,1,0.31582060002256185,None,139.98858880007174,140.50025220005773,,141.4995246999897,,,,,,,,,,,,,,,,,003,001,2025-04-29_23h02.18.097,Cued GoNogo Task,2024.2.4,60.02188400579458,2025-04-29 23h02.26.136104 +0200,
block/CondBlock1.xlsx,You are about to start a block of type 1 trials.,30,30,0,Go,Go,0.23,0.2,0.05,space,green,vertical,space,1.364985499996692,None,space,1,0.14818450005259365,None,,,,0,0,0,0,0,30,30,30,141.51609940000344,,,,,,,,,,,,,,,,141.49975820002146,141.51609940000344,142.19884810002986,142.2157025000779,142.69836759997997,142.6825547000626,142.68328890006524,142.69836759997997,142.93149180000182,143.11461470008362,143.11461470008362,143.26588419999462,space,1,0.14818450005259365,None,143.2687297000084,143.7807320000138,144.7800358000677,144.76397159998305,,,,,,,,,,,,,,,,,003,001,2025-04-29_23h02.18.097,Cued GoNogo Task,2024.2.4,60.02188400579458,2025-04-29 23h02.26.136104 +0200,
block/CondBlock1.xlsx,You are about to start a block of type 1 trials.,31,31,0,Go,Go,0.28,0.2,0.05,space,green,vertical,space,1.364985499996692,None,space,1,0.22580250003375113,None,,,,0,0,0,0,0,31,31,31,144.7800358000677,,,,,,,,,,,,,,,,144.76421529997606,144.7800358000677,145.47945330000948,145.47945330000948,145.9790137000382,145.96336070005782,145.9640950000612,145.9790137000382,146.26198770001065,146.4452926000813,146.4452926000813,146.67962910002097,space,1,0.22580250003375113,None,146.68301410006825,147.19467120000627,148.19378610001877,148.17833760008216,,,,,,,,,,,,,,,,,003,001,2025-04-29_23h02.18.097,Cued GoNogo Task,2024.2.4,60.02188400579458,2025-04-29 23h02.26.136104 +0200,
block/CondBlock1.xlsx,You are about to start a block of type 1 trials.,32,32,0,Go,Go,0.19,0.2,0.05,space,green,vertical,space,1.364985499996692,None,space,1,0.21583910007029772,None,,,,0,0,0,0,0,32,32,32,148.19378610001877,,,,,,,,,,,,,,,,148.17873290006537,148.19378610001877,148.89332710008603,148.89332710008603,149.3928264999995,149.37693250004668,149.37762320006732,149.3928264999995,149.5925956000574,149.77588159998413,149.77588159998413,149.9943047000561,space,1,0.21583910007029772,None,149.9980492000468,150.50872869999148,151.50781470001675,151.49232530000154,,,,,,,,,,,,,,,,,003,001,2025-04-29_23h02.18.097,Cued GoNogo Task,2024.2.4,60.02188400579458,2025-04-29 23h02.26.136104 +0200,
block/CondBlock1.xlsx,You are about to start a block of type 1 trials.,33,33,0,Go,Go,0.12,0.2,0.05,space,green,vertical,space,1.364985499996692,None,space,1,0.1450118999928236,None,,,,0,0,0,0,0,33,33,33,151.50781470001675,,,,,,,,,,,,,,,,151.4926446999889,151.50781470001675,152.20717250008602,152.20717250008602,152.7069425000809,152.6907833000878,152.69145789998583,152.7069425000809,152.84013050002977,153.02314549998846,153.02314549998846,153.17433559999336,space,1,0.1450118999928236,None,153.17861459997948,153.6894464000361,154.68841519998387,154.67261610005517,,,,,,,,,,,,,,,,,003,001,2025-04-29_23h02.18.097,Cued GoNogo Task,2024.2.4,60.02188400579458,2025-04-29 23h02.26.136104 +0200,
block/CondBlock1.xlsx,You are about to start a block of type 1 trials.,34,34,0,Go,Go,0.18,0.2,0.05,space,blue,vertical,space,1.364985499996692,None,space,1,0.2021954000229016,None,,,,0,0,0,0,0,34,34,34,154.68841519998387,,,,,,,,,,,,,,,,154.6729350000387,154.68841519998387,155.38806250004563,155.38806250004563,155.88754060002975,155.8717900000047,155.8723750000354,155.88754060002975,156.07078639999963,156.25391159998253,156.25391159998253,156.47199560003355,space,1,0.2021954000229016,None,156.4773854999803,156.98653790005483,157.9859067000216,157.97031780006364,,,,,,,,,,,,,,,,,003,001,2025-04-29_23h02.18.097,Cued GoNogo Task,2024.2.4,60.02188400579458,2025-04-29 23h02.26.136104 +0200,
block/CondBlock1.xlsx,You are about to start a block of type 1 trials.,35,35,0,Go,Go,0.21,0.2,0.05,space,blue,vertical,space,1.364985499996692,None,space,1,0.17428589996416122,None,,,,0,0,0,0,0,35,35,35,157.9859067000216,,,,,,,,,,,,,,,,157.9708109999774,157.9859067000216,158.68531940004323,158.68531940004323,159.1848752000369,159.16908710007556,159.16992350004148,159.1848752000369,159.4015616000397,159.58458870009053,159.58458870009053,159.76908310002182,space,1,0.17428589996416122,None,159.77311469998676,160.28388700005598,161.28315210004803,161.2670568000758,,,,,,,,,,,,,,,,,003,001,2025-04-29_23h02.18.097,Cued GoNogo Task,2024.2.4,60.02188400579458,2025-04-29 23h02.26.136104 +0200,
block/CondBlock1.xlsx,You are about to start a block of type 1 trials.,36,36,0,Go,Go,0.2,0.2,0.05,space,green,vertical,space,1.364985499996692,None,space,1,0.16608760005328804,None,,,,0,0,0,0,0,36,36,36,161.28315210004803,,,,,,,,,,,,,,,,161.26729420002084,161.28315210004803,161.98263830004726,161.98263830004726,162.4820310000796,162.46633730002213,162.467184200068,162.4820310000796,162.68201119999867,162.88196280004922,162.88196280004922,163.05087949999142,space,1,0.16608760005328804,None,163.05504160001874,163.56454709998798,164.56379970000125,164.54828420002013,,,,,,,,,,,,,,,,,003,001,2025-04-29_23h02.18.097,Cued GoNogo Task,2024.2.4,60.02188400579458,2025-04-29 23h02.26.136104 +0200,
block/CondBlock1.xlsx,You are about to start a block of type 1 trials.,37,37,0,Go,Go,0.45,0.05,0.2,space,blue,horizontal,space,1.364985499996692,None,space,1,0.1551712000509724,None,,,,0,0,0,0,0,37,37,37,164.56379970000125,,,,,,,,,,,,,,,,164.548612600076,164.56379970000125,165.26314619998448,165.26314619998448,165.76266300003044,165.7468326999806,165.74778470001183,165.76266300003044,166.21249439998064,166.4121927000815,166.4121927000815,166.580485100043,space,1,0.1551712000509724,None,166.58594999997877,167.09497159998864,168.09426889999304,168.07796889997553,,,,,,,,,,,,,,,,,003,001,2025-04-29_23h02.18.097,Cued GoNogo Task,2024.2.4,60.02188400579458,2025-04-29 23h02.26.136104 +0200,
block/CondBlock1.xlsx,You are about to start a block of type 1 trials.,38,38,0,Go,Go,0.13,0.05,0.2,space,blue,horizontal,space,1.364985499996692,None,space,1,0.25367430003825575,None,,,,0,0,0,0,0,38,38,38,168.09426889999304,,,,,,,,,,,,,,,,168.0783801000798,168.09426889999304,168.793657500064,168.793657500064,169.29322140000295,169.2770085000666,169.27757110004313,169.29322140000295,169.42642570007592,169.60981130006257,169.60981130006257,169.87719800008927,space,1,0.25367430003825575,None,169.88073119998444,170.39228949998505,171.3915365000721,171.37554580008145,,,,,,,,,,,,,,,,,003,001,2025-04-29_23h02.18.097,Cued GoNogo Task,2024.2.4,60.02188400579458,2025-04-29 23h02.26.136104 +0200,
block/CondBlock1.xlsx,You are about to start a block of type 1 trials.,39,39,0,Go,Go,0.46,0.2,0.05,space,blue,vertical,space,1.364985499996692,None,space,1,0.20747010002378374,None,,,,0,0,0,0,0,39,39,39,171.3915365000721,,,,,,,,,,,,,,,,171.37583779997658,171.3915365000721,172.09102140006144,172.09102140006144,172.59051990008447,172.57492240006104,172.5758736000862,172.59051990008447,173.0565992000047,173.2398867000593,173.2398867000593,173.45739200001117,space,1,0.20747010002378374,None,173.46081690001301,173.972665600013,174.9719546000706,174.95598630001768,,,,,,,,,,,,,,,,,003,001,2025-04-29_23h02.18.097,Cued GoNogo Task,2024.2.4,60.02188400579458,2025-04-29 23h02.26.136104 +0200,
block/CondBlock1.xlsx,You are about to start a block of type 1 trials.,40,40,0,Go,Go,0.29,0.2,0.05,space,blue,vertical,space,1.364985499996692,None,space,1,0.28151250001974404,None,,,,0,0,0,0,0,40,40,40,174.9719546000706,,,,,,,,,,,,,,,,174.95629800006282,174.9719546000706,175.67132820002735,175.67132820002735,176.170804399997,176.15504550002515,176.15573220001534,176.170804399997,176.4706713000778,176.65358990000095,176.65358990000095,176.93892059999052,space,1,0.28151250001974404,None,176.94373110006563,177.45325550006237,178.45245139999315,178.43657850008458,,,,,,,,,,,,,,,,,003,001,2025-04-29_23h02.18.097,Cued GoNogo Task,2024.2.4,60.02188400579458,2025-04-29 23h02.26.136104 +0200,
block/CondBlock1.xlsx,You are about to start a block of type 1 trials.,41,41,0,Go,Go,0.22,0.2,0.05,space,blue,vertical,space,1.364985499996692,None,space,1,0.23531869996804744,None,,,,0,0,0,0,0,41,41,41,178.45245139999315,,,,,,,,,,,,,,,,178.43689570005517,178.45245139999315,179.1517385999905,179.1517385999905,179.6513866999885,179.63588070007972,179.63695429998916,179.6513866999885,179.8844605999766,180.06767260003835,180.06767260003835,180.3189149000682,space,1,0.23531869996804744,None,180.3234889000887,180.83370199997444,181.83288420003373,181.81687109998893,,,,,,,,,,,,,,,,,003,001,2025-04-29_23h02.18.097,Cued GoNogo Task,2024.2.4,60.02188400579458,2025-04-29 23h02.26.136104 +0200,
block/CondBlock1.xlsx,You are about to start a block of type 1 trials.,42,42,0,Go,Go,0.49,0.2,0.05,space,blue,vertical,space,1.364985499996692,None,space,1,0.30819659994449466,None,,,,0,0,0,0,0,42,42,42,181.83288420003373,,,,,,,,,,,,,,,,181.81712050002534,181.83288420003373,182.53222759999335,182.53222759999335,183.03208270005416,183.01561030000448,183.01629780000076,183.03208270005416,183.5315526999766,183.71460379997734,183.71460379997734,184.03312919999007,space,1,0.30819659994449466,None,184.038275500061,184.54723120003473,185.54646109999157,185.53075290005654,,,,,,,,,,,,,,,,,003,001,2025-04-29_23h02.18.097,Cued GoNogo Task,2024.2.4,60.02188400579458,2025-04-29 23h02.26.136104 +0200,
block/CondBlock1.xlsx,You are about to start a block of type 1 trials.,43,43,0,Go,Go,0.2,0.2,0.05,space,blue,vertical,space,1.364985499996692,None,space,1,0.21401929995045066,None,,,,0,0,0,0,0,43,43,43,185.54646109999157,,,,,,,,,,,,,,,,185.53105240000878,185.54646109999157,186.24592450005002,186.24592450005002,186.74536400008947,186.72926010005176,186.72975090006366,186.74536400008947,186.94528470002115,187.14516990003176,187.14516990003176,187.3628800000297,space,1,0.21401929995045066,None,187.36704100004863,187.8778706000885,188.87712239997927,188.86135150003247,,,,,,,,,,,,,,,,,003,001,2025-04-29_23h02.18.097,Cued GoNogo Task,2024.2.4,60.02188400579458,2025-04-29 23h02.26.136104 +0200,
block/CondBlock1.xlsx,You are about to start a block of type 1 trials.,44,44,0,Go,Go,0.3,0.05,0.2,space,blue,horizontal,space,1.364985499996692,None,space,1,0.2071549000684172,None,,,,0,0,0,0,0,44,44,44,188.87712239997927,,,,,,,,,,,,,,,,188.8617046000436,188.87712239997927,189.57649600005243,189.57649600005243,190.07680090004578,190.05983550008386,190.06024140003137,190.07680090004578,190.37595480005257,190.57574970007408,190.57574970007408,190.7930782000767,space,1,0.2071549000684172,None,190.79638299997896,191.30836080003064,192.30773650004994,192.29159040004015,,,,,,,,,,,,,,,,,003,001,2025-04-29_23h02.18.097,Cued GoNogo Task,2024.2.4,60.02188400579458,2025-04-29 23h02.26.136104 +0200,
block/CondBlock1.xlsx,You are about to start a block of type 1 trials.,45,45,0,NoGo,NoGo,0.21,0.05,0.2,none,green,horizontal,space,1.364985499996692,None,None,1,,,,,,0,0,0,0,0,45,45,45,192.30773650004994,,,,,,,,,,,,,,,,192.29193780000787,192.30773650004994,193.0070229000412,193.0070229000412,193.507175500039,193.4910137000261,193.49184280005284,193.507175500039,193.72298469999805,193.9064315999858,193.9064315999858,194.3903038999997,None,1,,,194.39374700002372,194.90539159998298,195.90465450007468,195.88878270005807,194.40569869999308,194.40569869999308,,,,,,,,,,,,,,,003,001,2025-04-29_23h02.18.097,Cued GoNogo Task,2024.2.4,60.02188400579458,2025-04-29 23h02.26.136104 +0200,
block/CondBlock1.xlsx,You are about to start a block of type 1 trials.,46,46,0,NoGo,NoGo,0.45,0.05,0.2,none,blue,horizontal,space,1.364985499996692,None,space,0,0.09472220006864518,None,,,,0,0,0,0,0,46,46,46,195.90465450007468,,,,,,,,,,,,,,,,195.88909200008493,195.90465450007468,196.60395150003023,196.60395150003023,197.10357859998476,197.08773640007712,197.08837790007237,197.10357859998476,197.5531313000247,197.75306250003632,197.75306250003632,197.85458380007185,space,0,0.09472220006864518,None,197.86091480008326,198.36983590002637,,199.3684691999806,,,,,,,,,,,,,,,,,003,001,2025-04-29_23h02.18.097,Cued GoNogo Task,2024.2.4,60.02188400579458,2025-04-29 23h02.26.136104 +0200,
block/CondBlock1.xlsx,You are about to start a block of type 1 trials.,47,47,0,Go,Go,0.24,0.05,0.2,space,green,horizontal,space,1.364985499996692,None,space,1,0.2710274999262765,None,,,,0,0,0,0,0,47,47,47,199.3851144000655,,,,,,,,,,,,,,,,199.3686858000001,199.3851144000655,200.0678471000865,200.08460360008758,200.5674885000335,200.55141259997617,200.55196950002573,200.5674885000335,200.81710149999708,201.00034070003312,201.00034070003312,201.2845242000185,space,1,0.2710274999262765,None,201.2877376000397,201.7997883000644,202.79910770000424,202.7829793000128,,,,,,,,,,,,,,,,,003,001,2025-04-29_23h02.18.097,Cued GoNogo Task,2024.2.4,60.02188400579458,2025-04-29 23h02.26.136104 +0200,
block/CondBlock1.xlsx,You are about to start a block of type 1 trials.,48,48,0,NoGo,NoGo,0.15,0.2,0.05,none,blue,vertical,space,1.364985499996692,None,space,0,0.06728129996918142,None,,,,0,0,0,0,0,48,48,48,202.79910770000424,,,,,,,,,,,,,,,,202.78331430000253,202.79910770000424,203.49825599999167,203.49825599999167,203.9979680000106,203.98195200006012,203.98288160003722,203.9979680000106,204.14779090008233,204.34783109999262,204.34783109999262,204.43236370000523,space,0,0.06728129996918142,None,204.43899370008148,204.94711930002086,205.94671669998206,205.93046840000898,,,,,,,,,,,,,,,,,003,001,2025-04-29_23h02.18.097,Cued GoNogo Task,2024.2.4,60.02188400579458,2025-04-29 23h02.26.136104 +0200,
block/CondBlock1.xlsx,You are about to start a block of type 1 trials.,49,49,0,Go,Go,0.12,0.05,0.2,space,blue,horizontal,space,1.364985499996692,None,space,1,0.3137641999637708,None,,,,0,0,0,0,0,49,49,49,205.94671669998206,,,,,,,,,,,,,,,,205.93073260004167,205.94671669998206,206.64568730001338,206.66220000002068,207.14555770007428,207.1296069000382,207.13058240001556,207.14555770007428,207.27859090000857,207.4619238000596,207.4619238000596,207.77902820007876,space,1,0.3137641999637708,None,207.7818112000823,208.29446880007163,209.2934691000264,209.27770149998832,,,,,,,,,,,,,,,,,003,001,2025-04-29_23h02.18.097,Cued GoNogo Task,2024.2.4,60.02188400579458,2025-04-29 23h02.26.136104 +0200,
block/CondBlock1.xlsx,You are about to start a block of type 1 trials.,50,50,0,Go,Go,0.22,0.2,0.05,space,green,vertical,space,1.364985499996692,None,space,1,0.36248380003962666,None,,,,0,0,0,0,0,50,50,50,209.2934691000264,,,,,,,,,,,,,,,,209.27800320007373,209.2934691000264,209.99295950005762,209.99295950005762,210.49284740001895,210.4764698999934,210.47685430001002,210.49284740001895,210.72575990005862,210.90889199997764,210.90889199997764,211.27654650004115,space,1,0.36248380003962666,None,211.27962230006233,211.7915965000866,212.7907458000118,212.77480030001607,,,,,,,,,,,,,,,,,003,001,2025-04-29_23h02.18.097,Cued GoNogo Task,2024.2.4,60.02188400579458,2025-04-29 23h02.26.136104 +0200,
block/CondBlock1.xlsx,You are about to start a block of type 1 trials.,51,51,0,Go,Go,0.28,0.05,0.2,space,green,horizontal,space,1.364985499996692,None,space,1,0.19876220007427037,None,,,,0,0,0,0,0,51,51,51,212.7907458000118,,,,,,,,,,,,,,,,212.77508450008463,212.7907458000118,213.49034450005274,213.49034450005274,213.98963269998785,213.9735198999988,213.9741046000272,213.98963269998785,214.2729943000013,214.45601490000263,214.45601490000263,214.6572831000667,space,1,0.19876220007427037,None,214.66184269997757,215.1720173000358,216.1714620999992,216.15559610002674,,,,,,,,,,,,,,,,,003,001,2025-04-29_23h02.18.097,Cued GoNogo Task,2024.2.4,60.02188400579458,2025-04-29 23h02.26.136104 +0200,
block/CondBlock1.xlsx,You are about to start a block of type 1 trials.,52,52,0,Go,Go,0.23,0.2,0.05,space,green,vertical,space,1.364985499996692,None,space,1,0.3569996999576688,None,,,,0,0,0,0,0,52,52,52,216.1714620999992,,,,,,,,,,,,,,,,216.1559018000262,216.1714620999992,216.8707996000303,216.8707996000303,217.37039460008964,217.3545826000627,217.3553214999847,217.37039460008964,217.6035700000357,217.7865014000563,217.7865014000563,218.15440570004284,space,1,0.3569996999576688,None,218.1590083000483,218.6692444999935,219.66843970003538,219.65269240003545,,,,,,,,,,,,,,,,,003,001,2025-04-29_23h02.18.097,Cued GoNogo Task,2024.2.4,60.02188400579458,2025-04-29 23h02.26.136104 +0200,
block/CondBlock1.xlsx,You are about to start a block of type 1 trials.,53,53,0,Go,Go,0.22,0.05,0.2,space,green,horizontal,space,1.364985499996692,None,space,1,0.3715770000126213,None,,,,0,0,0,0,0,53,53,53,219.66843970003538,,,,,,,,,,,,,,,,219.65300270006992,219.66843970003538,220.36781550000887,220.36781550000887,220.86750639998354,220.85213730006944,220.85298389999662,220.86750639998354,221.1005581000354,221.28374720003922,221.28374720003922,221.66805950005073,space,1,0.3715770000126213,None,221.67137260001618,222.18326950003393,223.18211870000232,223.16662769997492,,,,,,,,,,,,,,,,,003,001,2025-04-29_23h02.18.097,Cued GoNogo Task,2024.2.4,60.02188400579458,2025-04-29 23h02.26.136104 +0200,
block/CondBlock1.xlsx,You are about to start a block of type 1 trials.,54,54,0,NoGo,NoGo,0.14,0.05,0.2,none,green,horizontal,space,1.364985499996692,None,None,1,,,,,,0,0,0,0,0,54,54,54,223.18211870000232,,,,,,,,,,,,,,,,223.1671019999776,223.18211870000232,223.88150959997438,223.88150959997438,224.38102640002035,224.3651498000836,224.36582629999612,224.38102640002035,224.53103269997519,224.71426080004312,224.71426080004312,225.19852930004708,None,1,,,225.20053560007364,225.7134844000684,226.71251710003708,226.6965156000806,225.2141061000293,225.2141061000293,,,,,,,,,,,,,,,003,001,2025-04-29_23h02.18.097,Cued GoNogo Task,2024.2.4,60.02188400579458,2025-04-29 23h02.26.136104 +0200,
block/CondBlock1.xlsx,You are about to start a block of type 1 trials.,55,55,0,Go,Go,0.15,0.2,0.05,space,blue,vertical,space,1.364985499996692,None,space,1,0.09030010004062206,None,,,,0,0,0,0,0,55,55,55,226.71251710003708,,,,,,,,,,,,,,,,226.69668110006023,226.71251710003708,227.4119689000072,227.4119689000072,227.9116441999795,227.89598200004548,227.89675670000724,227.9116441999795,228.06159430008847,228.26142960006837,228.26142960006837,228.36250879999716,space,1,0.09030010004062206,None,228.36664770008065,228.8776275999844,229.87668260000646,229.8612095999997,,,,,,,,,,,,,,,,,003,001,2025-04-29_23h02.18.097,Cued GoNogo Task,2024.2.4,60.02188400579458,2025-04-29 23h02.26.136104 +0200,
block/CondBlock1.xlsx,You are about to start a block of type 1 trials.,56,56,0,Go,Go,0.47,0.2,0.05,space,blue,vertical,space,1.364985499996692,None,space,1,0.09825019992422312,None,,,,0,0,0,0,0,56,56,56,229.87668260000646,,,,,,,,,,,,,,,,229.8615527000511,229.87668260000646,230.57617820007727,230.57617820007727,231.07568060001358,231.059865700081,231.06063349999022,231.07568060001358,231.55868520005606,231.74164230003953,231.74164230003953,231.84266319999006,space,1,0.09825019992422312,None,231.84732190007344,232.3578858000692,233.35710590006784,233.34097270003986,,,,,,,,,,,,,,,,,003,001,2025-04-29_23h02.18.097,Cued GoNogo Task,2024.2.4,60.02188400579458,2025-04-29 23h02.26.136104 +0200,
block/CondBlock1.xlsx,You are about to start a block of type 1 trials.,57,57,0,NoGo,NoGo,0.42,0.2,0.05,none,green,vertical,space,1.364985499996692,None,None,1,,,,,,0,0,0,0,0,57,57,57,233.35710590006784,,,,,,,,,,,,,,,,233.3411850000266,233.35710590006784,234.05647950002458,234.05647950002458,234.55614990007598,234.54017150006257,234.54075669997837,234.55614990007598,234.989090600051,235.1723731000675,235.1723731000675,235.65608119999524,None,1,,,235.65909610001836,236.17167650000192,237.17074259999208,237.15510340000037,235.67185450007673,235.67185450007673,,,,,,,,,,,,,,,003,001,2025-04-29_23h02.18.097,Cued GoNogo Task,2024.2.4,60.02188400579458,2025-04-29 23h02.26.136104 +0200,
block/CondBlock1.xlsx,You are about to start a block of type 1 trials.,58,58,0,Go,Go,0.22,0.05,0.2,space,green,horizontal,space,1.364985499996692,None,space,1,0.28599580004811287,None,,,,0,0,0,0,0,58,58,58,237.17074259999208,,,,,,,,,,,,,,,,237.15541490004398,237.17074259999208,237.8700964000309,237.8700964000309,238.36963540001307,238.35406290006358,238.35485960007645,238.36963540001307,238.60293569997884,238.7858142000623,238.7858142000623,239.08674420008902,space,1,0.28599580004811287,None,239.0901175000472,239.60198360006325,240.60123670008034,240.58568850008305,,,,,,,,,,,,,,,,,003,001,2025-04-29_23h02.18.097,Cued GoNogo Task,2024.2.4,60.02188400579458,2025-04-29 23h02.26.136104 +0200,
block/CondBlock1.xlsx,You are about to start a block of type 1 trials.,59,59,0,Go,Go,0.3,0.2,0.05,space,blue,vertical,space,1.364985499996692,None,space,1,0.2514302000636235,None,,,,0,0,0,0,0,59,59,59,240.60123670008034,,,,,,,,,,,,,,,,240.58601129997987,240.60123670008034,241.30060590000357,241.30060590000357,241.80008309998084,241.78416719997767,241.78470100008417,241.80008309998084,242.09995080006775,242.29979509999976,242.29979509999976,242.56789000006393,space,1,0.2514302000636235,None,242.57323620002717,243.08247480005957,244.08166949998122,244.06610789999831,,,,,,,,,,,,,,,,,003,001,2025-04-29_23h02.18.097,Cued GoNogo Task,2024.2.4,60.02188400579458,2025-04-29 23h02.26.136104 +0200,
block/CondBlock1.xlsx,You are about to start a block of type 1 trials.,60,60,0,NoGo,NoGo,0.24,0.2,0.05,none,blue,vertical,space,1.364985499996692,None,None,1,,,,,,0,0,0,0,0,60,60,60,244.08166949998122,,,,,,,,,,,,,,,,244.06648370006587,244.08166949998122,244.78109360008966,244.78109360008966,245.28071610000916,245.2647830999922,245.26536219997797,245.28071610000916,245.53034559998196,245.71374460007064,245.71374460007064,246.19729929999448,None,1,,,246.1998365999898,246.71286349999718,247.71222220000345,247.69643910008017,246.2133271000348,246.2133271000348,,,,,,,,,,,,,,,003,001,2025-04-29_23h02.18.097,Cued GoNogo Task,2024.2.4,60.02188400579458,2025-04-29 23h02.26.136104 +0200,
block/CondBlock1.xlsx,You are about to start a block of type 1 trials.,61,61,0,NoGo,NoGo,0.1,0.2,0.05,none,green,vertical,space,1.364985499996692,None,space,0,0.2123626999091357,None,,,,0,0,0,0,0,61,61,61,247.71222220000345,,,,,,,,,,,,,,,,247.69682610000018,247.71222220000345,248.41152100008912,248.41152100008912,248.91102460003458,248.89522330008913,248.89594820002094,248.91102460003458,249.0109048000304,249.21072760003153,249.21072760003153,249.4283023000462,space,0,0.2123626999091357,None,249.43269060004968,249.94355269998778,250.94271600001957,250.9268282999983,,,,,,,,,,,,,,,,,003,001,2025-04-29_23h02.18.097,Cued GoNogo Task,2024.2.4,60.02188400579458,2025-04-29 23h02.26.136104 +0200,
block/CondBlock1.xlsx,You are about to start a block of type 1 trials.,62,62,0,Go,Go,0.45,0.05,0.2,space,blue,horizontal,space,1.364985499996692,None,space,1,0.09754650003742427,None,,,,0,0,0,0,0,62,62,62,250.94271600001957,,,,,,,,,,,,,,,,250.92709370004013,250.94271600001957,251.64211720007006,251.64211720007006,252.14170050004032,252.12625450000633,252.1272033000132,252.14170050004032,252.59130600001663,252.7911349000642,252.7911349000642,252.8921409000177,space,1,0.09754650003742427,None,252.89566150004975,253.40717750007752,254.40653300005943,254.39054110005964,,,,,,,,,,,,,,,,,003,001,2025-04-29_23h02.18.097,Cued GoNogo Task,2024.2.4,60.02188400579458,2025-04-29 23h02.26.136104 +0200,
block/CondBlock1.xlsx,You are about to start a block of type 1 trials.,63,63,0,Go,Go,0.1,0.05,0.2,space,green,horizontal,space,1.364985499996692,None,space,1,0.20577449991833419,None,,,,0,0,0,0,0,63,63,63,254.40653300005943,,,,,,,,,,,,,,,,254.39079720003065,254.40653300005943,255.1058720999863,255.1058720999863,255.60566680005286,255.58959260000847,255.59028300002683,255.60566680005286,255.7052906000754,255.90538320003543,255.90538320003543,256.1227887000423,space,1,0.20577449991833419,None,256.1266452000709,256.63796750002075,257.6371139000403,257.6212996999966,,,,,,,,,,,,,,,,,003,001,2025-04-29_23h02.18.097,Cued GoNogo Task,2024.2.4,60.02188400579458,2025-04-29 23h02.26.136104 +0200,
block/CondBlock1.xlsx,You are about to start a block of type 1 trials.,64,64,0,Go,Go,0.19,0.05,0.2,space,blue,horizontal,space,1.364985499996692,None,space,1,0.2515281999949366,None,,,,0,0,0,0,0,64,64,64,257.6371139000403,,,,,,,,,,,,,,,,257.6216981000034,257.6371139000403,258.3366068000905,258.3366068000905,258.8360472000204,258.8202532000141,258.82087659998797,258.8360472000204,259.0360227000201,259.21922030008864,259.21922030008864,259.4867315000156,space,1,0.2515281999949366,None,259.49021120008547,260.001974600018,261.00104440003633,260.98535730002914,,,,,,,,,,,,,,,,,003,001,2025-04-29_23h02.18.097,Cued GoNogo Task,2024.2.4,60.02188400579458,2025-04-29 23h02.26.136104 +0200,
block/CondBlock1.xlsx,You are about to start a block of type 1 trials.,65,65,0,Go,Go,0.21,0.2,0.05,space,blue,vertical,space,1.364985499996692,None,space,1,0.3277779999189079,None,,,,0,0,0,0,0,65,65,65,261.00104440003633,,,,,,,,,,,,,,,,260.98561500001233,261.00104440003633,261.70043309999164,261.70043309999164,262.2000935000833,262.1843565000454,262.1849516000366,262.2000935000833,262.4165170000633,262.59991640003864,262.59991640003864,262.9341917000711,space,1,0.3277779999189079,None,262.9390058000572,263.44905020005535,264.4481986000901,264.43239420000464,,,,,,,,,,,,,,,,,003,001,2025-04-29_23h02.18.097,Cued GoNogo Task,2024.2.4,60.02188400579458,2025-04-29 23h02.26.136104 +0200,
block/CondBlock1.xlsx,You are about to start a block of type 1 trials.,66,66,0,Go,Go,0.18,0.05,0.2,space,blue,horizontal,space,1.364985499996692,None,space,1,0.3943849999923259,None,,,,0,0,0,0,0,66,66,66,264.4481986000901,,,,,,,,,,,,,,,,264.43270410003606,264.4481986000901,265.14769740006886,265.14769740006886,265.6471871000249,265.6318676000228,265.63277640007436,265.6471871000249,265.83047100005206,266.0136926000705,266.0136926000705,266.41491180006415,space,1,0.3943849999923259,None,266.4195618000813,266.92967630003113,267.92869069997687,267.91310220002197,,,,,,,,,,,,,,,,,003,001,2025-04-29_23h02.18.097,Cued GoNogo Task,2024.2.4,60.02188400579458,2025-04-29 23h02.26.136104 +0200,
block/CondBlock1.xlsx,You are about to start a block of type 1 trials.,67,67,0,Go,Go,0.29,0.2,0.05,space,green,vertical,space,1.364985499996692,None,space,1,0.3644542000256479,None,,,,0,0,0,0,0,67,67,67,267.92869069997687,,,,,,,,,,,,,,,,267.91344889998436,267.92869069997687,268.62813050008845,268.62813050008845,269.1276623000158,269.1116003000643,269.1122208000161,269.1276623000158,269.42755370005034,269.61064030008856,269.61064030008856,269.97844930004794,space,1,0.3644542000256479,None,269.98270789999515,270.49335760006215,271.4924840000458,271.4766151000513,,,,,,,,,,,,,,,,,003,001,2025-04-29_23h02.18.097,Cued GoNogo Task,2024.2.4,60.02188400579458,2025-04-29 23h02.26.136104 +0200,
block/CondBlock1.xlsx,You are about to start a block of type 1 trials.,68,68,0,NoGo,NoGo,0.24,0.2,0.05,none,blue,vertical,space,1.364985499996692,None,None,1,,,,,,0,0,0,0,0,68,68,68,271.4924840000458,,,,,,,,,,,,,,,,271.4769054000499,271.4924840000458,272.1918300000252,272.1918300000252,272.69142649997957,272.6756607000716,272.67625750007574,272.69142649997957,272.94120850006584,273.12418390007224,273.12418390007224,273.6080437999917,None,1,,,273.61083130002953,274.1235384000465,275.1227882000385,275.1069650000427,273.62411039997824,273.62411039997824,,,,,,,,,,,,,,,003,001,2025-04-29_23h02.18.097,Cued GoNogo Task,2024.2.4,60.02188400579458,2025-04-29 23h02.26.136104 +0200,
block/CondBlock1.xlsx,You are about to start a block of type 1 trials.,69,69,0,Go,Go,0.27,0.05,0.2,space,green,horizontal,space,1.364985499996692,None,space,1,0.0999621000373736,None,,,,0,0,0,0,0,69,69,69,275.1227882000385,,,,,,,,,,,,,,,,275.10723810002673,275.1227882000385,275.8220199000789,275.8220199000789,276.3217615999747,276.30613000004087,276.3070153000299,276.3217615999747,276.60509109997656,276.78820260008797,276.78820260008797,276.89092530007474,space,1,0.0999621000373736,None,276.89489200001117,277.40430860000197,278.4034547000192,278.38750670000445,,,,,,,,,,,,,,,,,003,001,2025-04-29_23h02.18.097,Cued GoNogo Task,2024.2.4,60.02188400579458,2025-04-29 23h02.26.136104 +0200,
block/CondBlock1.xlsx,You are about to start a block of type 1 trials.,70,70,0,Go,Go,0.25,0.2,0.05,space,green,vertical,space,1.364985499996692,None,space,1,0.1320382000412792,None,,,,0,0,0,0,0,70,70,70,278.4034547000192,,,,,,,,,,,,,,,,278.3878262999933,278.4034547000192,279.1028336000163,279.1028336000163,279.60243169998284,279.58664910006337,279.587322800071,279.60243169998284,279.8521498000482,280.05204079998657,280.05204079998657,280.18685559998266,space,1,0.1320382000412792,None,280.190938499989,280.70159740000963,281.70082460006233,281.68485279998276,,,,,,,,,,,,,,,,,003,001,2025-04-29_23h02.18.097,Cued GoNogo Task,2024.2.4,60.02188400579458,2025-04-29 23h02.26.136104 +0200,
block/CondBlock1.xlsx,You are about to start a block of type 1 trials.,71,71,0,Go,Go,0.28,0.05,0.2,space,green,horizontal,space,1.364985499996692,None,space,1,0.18498250003904104,None,,,,0,0,0,0,0,71,71,71,281.70082460006233,,,,,,,,,,,,,,,,281.68518690008204,281.70082460006233,282.4001449000789,282.4001449000789,282.8996809000382,282.88411400001496,282.8850884999847,282.8996809000382,283.1827946000267,283.3659175999928,283.3659175999928,283.5674067999935,space,1,0.18498250003904104,None,283.570965000079,284.08203220006544,285.08125470008235,285.06566100008786,,,,,,,,,,,,,,,,,003,001,2025-04-29_23h02.18.097,Cued GoNogo Task,2024.2.4,60.02188400579458,2025-04-29 23h02.26.136104 +0200,
block/CondBlock1.xlsx,You are about to start a block of type 1 trials.,72,72,0,Go,Go,0.14,0.05,0.2,space,blue,horizontal,space,1.364985499996692,None,space,1,0.2177496999502182,None,,,,0,0,0,0,0,72,72,72,285.08125470008235,,,,,,,,,,,,,,,,285.06601980002597,285.08125470008235,285.7806814999785,285.7806814999785,286.28034800000023,286.2640783999814,286.2646703000646,286.28034800000023,286.43007830006536,286.61355770006776,286.61355770006776,286.84798600000795,space,1,0.2177496999502182,None,286.8519195000408,287.36278080008924,288.36201600008644,288.34631310007535,,,,,,,,,,,,,,,,,003,001,2025-04-29_23h02.18.097,Cued GoNogo Task,2024.2.4,60.02188400579458,2025-04-29 23h02.26.136104 +0200,
block/CondBlock1.xlsx,You are about to start a block of type 1 trials.,73,73,0,Go,Go,0.11,0.05,0.2,space,blue,horizontal,space,1.364985499996692,None,space,1,0.19426880008541048,None,,,,0,0,0,0,0,73,73,73,288.36201600008644,,,,,,,,,,,,,,,,288.34669959999155,288.36201600008644,289.0615531000076,289.0615531000076,289.5611575000221,289.5447005000897,289.5452595000388,289.5611575000221,289.67765349999536,289.86085890000686,289.86085890000686,290.0617494999897,space,1,0.19426880008541048,None,290.0663200999843,290.57664029998705,291.5759600000456,291.56035789998714,,,,,,,,,,,,,,,,,003,001,2025-04-29_23h02.18.097,Cued GoNogo Task,2024.2.4,60.02188400579458,2025-04-29 23h02.26.136104 +0200,
block/CondBlock1.xlsx,You are about to start a block of type 1 trials.,74,74,0,Go,Go,0.22,0.2,0.05,space,blue,vertical,space,1.364985499996692,None,space,1,0.19175650004763156,None,,,,0,0,0,0,0,74,74,74,291.5759600000456,,,,,,,,,,,,,,,,291.56069499999285,291.5759600000456,292.2753076000372,292.2753076000372,292.7750779000344,292.759032699978,292.7596647000173,292.7750779000344,293.00815290003084,293.1911982999882,293.1911982999882,293.3924315000186,space,1,0.19175650004763156,None,293.3976849000901,293.9071829000022,294.9064529000316,294.89099230000284,,,,,,,,,,,,,,,,,003,001,2025-04-29_23h02.18.097,Cued GoNogo Task,2024.2.4,60.02188400579458,2025-04-29 23h02.26.136104 +0200,
block/CondBlock1.xlsx,You are about to start a block of type 1 trials.,75,75,0,Go,Go,0.26,0.05,0.2,space,blue,horizontal,space,1.364985499996692,None,space,1,0.17164330009836704,None,,,,0,0,0,0,0,75,75,75,294.9064529000316,,,,,,,,,,,,,,,,294.8912357999943,294.9064529000316,295.60598740004934,295.60598740004934,296.10543780005537,296.08991560002323,296.0906920999987,296.10543780005537,296.37204930000007,296.5550914000487,296.5550914000487,296.73949220008217,space,1,0.17164330009836704,None,296.74325509998016,297.2545377999777,298.2538035000907,298.2378864000784,,,,,,,,,,,,,,,,,003,001,2025-04-29_23h02.18.097,Cued GoNogo Task,2024.2.4,60.02188400579458,2025-04-29 23h02.26.136104 +0200,
block/CondBlock1.xlsx,You are about to start a block of type 1 trials.,76,76,0,Go,Go,0.14,0.2,0.05,space,green,vertical,space,1.364985499996692,None,space,1,0.23753649997524917,None,,,,0,0,0,0,0,76,76,76,298.2538035000907,,,,,,,,,,,,,,,,298.23818460002076,298.2538035000907,298.95329049997963,298.95329049997963,299.4528358000098,299.43704810005147,299.4377702000784,299.4528358000098,299.6029079,299.7858701000223,299.7858701000223,300.03710560000036,space,1,0.23753649997524917,None,300.0416922000004,300.551909300033,301.55098529998213,301.5351741000777,,,,,,,,,,,,,,,,,003,001,2025-04-29_23h02.18.097,Cued GoNogo Task,2024.2.4,60.02188400579458,2025-04-29 23h02.26.136104 +0200,
block/CondBlock1.xlsx,You are about to start a block of type 1 trials.,77,77,0,Go,Go,0.18,0.05,0.2,space,green,horizontal,space,1.364985499996692,None,space,1,0.20289539999794215,None,,,,0,0,0,0,0,77,77,77,301.55098529998213,,,,,,,,,,,,,,,,301.5354893000331,301.55098529998213,302.25040560006164,302.25040560006164,302.75020270003006,302.73420800000895,302.73494170000777,302.75020270003006,302.9332725000568,303.11661120003555,303.11661120003555,303.33410269999877,space,1,0.20289539999794215,None,303.33748590003233,303.84924000001047,304.848294800031,304.83258839999326,,,,,,,,,,,,,,,,,003,001,2025-04-29_23h02.18.097,Cued GoNogo Task,2024.2.4,60.02188400579458,2025-04-29 23h02.26.136104 +0200,
block/CondBlock1.xlsx,You are about to start a block of type 1 trials.,78,78,0,NoGo,NoGo,0.27,0.05,0.2,none,blue,horizontal,space,1.364985499996692,None,space,0,0.23748420004267246,None,,,,0,0,0,0,0,78,78,78,304.848294800031,,,,,,,,,,,,,,,,304.8328861000482,304.848294800031,305.5477197000291,305.5477197000291,306.04735400003847,306.03164190007374,306.0322846000781,306.04735400003847,306.330430699978,306.5135976000456,306.5135976000456,306.7649601000594,space,0,0.23748420004267246,None,306.7723281000508,307.2797430000501,308.27892190008424,308.2632752000354,,,,,,,,,,,,,,,,,003,001,2025-04-29_23h02.18.097,Cued GoNogo Task,2024.2.4,60.02188400579458,2025-04-29 23h02.26.136104 +0200,
block/CondBlock1.xlsx,You are about to start a block of type 1 trials.,79,79,0,NoGo,NoGo,0.26,0.2,0.05,none,blue,vertical,space,1.364985499996692,None,None,1,,,,,,0,0,0,0,0,79,79,79,308.27892190008424,,,,,,,,,,,,,,,,308.2635679000523,308.27892190008424,308.97829400002956,308.97829400002956,309.47784720000345,309.46213660005014,309.4630374000408,309.47784720000345,309.74430610006675,309.9276457000524,309.9276457000524,310.41106499999296,None,1,,,310.4131365000503,310.9100220000837,311.9091105000116,311.8936502999859,310.4270817000652,310.4270817000652,,,,,,,,,,,,,,,003,001,2025-04-29_23h02.18.097,Cued GoNogo Task,2024.2.4,60.02188400579458,2025-04-29 23h02.26.136104 +0200,
block/CondBlock1.xlsx,You are about to start a block of type 1 trials.,80,80,0,Go,Go,0.22,0.2,0.05,space,green,vertical,space,1.364985499996692,None,space,1,0.24135789996944368,None,,,,0,0,0,0,0,80,80,80,311.9091105000116,,,,,,,,,,,,,,,,311.8939936000388,311.92577149998397,312.6251807999797,312.6251807999797,313.1248820000328,313.1088713000063,313.1094311000779,313.1248820000328,313.35815780004486,313.541229100083,313.541229100083,313.7918692000676,space,1,0.24135789996944368,None,313.79558330005966,314.3073077000445,315.30637820006814,315.29055320005864,,,,,,,,,,,,,,,,,003,001,2025-04-29_23h02.18.097,Cued GoNogo Task,2024.2.4,60.02188400579458,2025-04-29 23h02.26.136104 +0200,
block/CondBlock1.xlsx,You are about to start a block of type 1 trials.,81,81,0,Go,Go,0.5,0.2,0.05,space,green,vertical,space,1.364985499996692,None,space,1,0.22673400002531707,None,,,,0,0,0,0,0,81,81,81,315.30637820006814,,,,,,,,,,,,,,,,315.290785200079,315.30637820006814,316.0058418000117,316.0058418000117,316.5053803999908,316.4896150000859,316.4902484000195,316.5053803999908,317.0050545000704,317.20493620005436,317.20493620005436,317.4400451000547,space,1,0.22673400002531707,None,317.44500730000436,317.9541682000272,318.9533891000319,318.9374920000555,,,,,,,,,,,,,,,,,003,001,2025-04-29_23h02.18.097,Cued GoNogo Task,2024.2.4,60.02188400579458,2025-04-29 23h02.26.136104 +0200,
block/CondBlock1.xlsx,You are about to start a block of type 1 trials.,82,82,0,Go,Go,0.43,0.05,0.2,space,green,horizontal,space,1.364985499996692,None,space,1,0.3583850000286475,None,,,,0,0,0,0,0,82,82,82,318.9533891000319,,,,,,,,,,,,,,,,318.9377370000584,318.9533891000319,319.6527226000326,319.6527226000326,320.15258500003256,320.1368375000311,320.13770309998654,320.15258500003256,320.58532730001025,320.78531840001233,320.78531840001233,321.15276670001913,space,1,0.3583850000286475,None,321.1570073000621,321.66779350000434,322.66711460007355,322.65137730003335,,,,,,,,,,,,,,,,,003,001,2025-04-29_23h02.18.097,Cued GoNogo Task,2024.2.4,60.02188400579458,2025-04-29 23h02.26.136104 +0200,
block/CondBlock1.xlsx,You are about to start a block of type 1 trials.,83,83,0,Go,Go,0.25,0.2,0.05,space,green,vertical,space,1.364985499996692,None,space,1,0.3556855999631807,None,,,,0,0,0,0,0,83,83,83,322.66711460007355,,,,,,,,,,,,,,,,322.65175790002104,322.66711460007355,323.36669890000485,323.36669890000485,323.8660144000314,323.85014820005745,323.8508376000682,323.8660144000314,324.11575850006193,324.3159202000825,324.3159202000825,324.6830725000473,space,1,0.3556855999631807,None,324.6872847999912,325.1984103000723,326.19753120001405,326.18133960000705,,,,,,,,,,,,,,,,,003,001,2025-04-29_23h02.18.097,Cued GoNogo Task,2024.2.4,60.02188400579458,2025-04-29 23h02.26.136104 +0200,
block/CondBlock1.xlsx,You are about to start a block of type 1 trials.,84,84,0,NoGo,NoGo,0.14,0.2,0.05,none,green,vertical,space,1.364985499996692,None,None,1,,,,,,0,0,0,0,0,84,84,84,326.19753120001405,,,,,,,,,,,,,,,,326.1815525999991,326.19753120001405,326.8970231000567,326.8970231000567,327.39648920006584,327.38051699998323,327.3810612000525,327.39648920006584,327.5465062999865,327.7293363000499,327.7293363000499,328.21326670004055,None,1,,,328.215761700063,328.72878430003766,329.7279630000703,329.71181970008183,328.2291610999964,328.2291610999964,,,,,,,,,,,,,,,003,001,2025-04-29_23h02.18.097,Cued GoNogo Task,2024.2.4,60.02188400579458,2025-04-29 23h02.26.136104 +0200,
block/CondBlock1.xlsx,You are about to start a block of type 1 trials.,85,85,0,Go,Go,0.2,0.05,0.2,space,blue,horizontal,space,1.364985499996692,None,space,1,0.07196640002075583,None,,,,0,0,0,0,0,85,85,85,329.7279630000703,,,,,,,,,,,,,,,,329.7121103000827,329.7279630000703,330.42720440006815,330.42720440006815,330.92697999998927,330.9110519000096,330.9117148000514,330.92697999998927,331.1267558999825,331.3267688000342,331.3267688000342,331.4111692000879,space,1,0.07196640002075583,None,331.41673170006834,331.92621549998876,332.92533530003857,332.90920770005323,,,,,,,,,,,,,,,,,003,001,2025-04-29_23h02.18.097,Cued GoNogo Task,2024.2.4,60.02188400579458,2025-04-29 23h02.26.136104 +0200,
block/CondBlock1.xlsx,You are about to start a block of type 1 trials.,86,86,0,Go,Go,0.16,0.2,0.05,space,blue,vertical,space,1.364985499996692,None,space,1,0.1900694000069052,None,,,,0,0,0,0,0,86,86,86,332.92533530003857,,,,,,,,,,,,,,,,332.9094487000257,332.92533530003857,333.62477170000784,333.62477170000784,334.1242316000862,334.1086769000394,334.10966980003286,334.1242316000862,334.2909282000037,334.47382010007277,334.47382010007277,334.6747808000073,space,1,0.1900694000069052,None,334.6791039999807,335.1901941000251,336.1892959000543,336.1734908000799,,,,,,,,,,,,,,,,,003,001,2025-04-29_23h02.18.097,Cued GoNogo Task,2024.2.4,60.02188400579458,2025-04-29 23h02.26.136104 +0200,
block/CondBlock1.xlsx,You are about to start a block of type 1 trials.,87,87,0,Go,Go,0.41,0.2,0.05,space,green,vertical,space,1.364985499996692,None,space,1,0.091942899976857,None,,,,0,0,0,0,0,87,87,87,336.1892959000543,,,,,,,,,,,,,,,,336.1739295000443,336.1892959000543,336.8886470000725,336.8886470000725,337.38813620002475,337.3722366000293,337.37285200005863,337.38813620002475,337.804566900013,337.9876612999942,337.9876612999942,338.08874739997555,space,1,0.091942899976857,None,338.09136409999337,338.6037784999935,339.6030963000376,339.58754410000984,,,,,,,,,,,,,,,,,003,001,2025-04-29_23h02.18.097,Cued GoNogo Task,2024.2.4,60.02188400579458,2025-04-29 23h02.26.136104 +0200,
block/CondBlock1.xlsx,You are about to start a block of type 1 trials.,88,88,0,NoGo,NoGo,0.15,0.2,0.05,none,green,vertical,space,1.364985499996692,None,space,0,0.07981369993649423,None,,,,0,0,0,0,0,88,88,88,339.6030963000376,,,,,,,,,,,,,,,,339.58795910002664,339.6030963000376,340.30248850001954,340.30248850001954,340.8020894000074,340.78623550001066,340.7868111000862,340.8020894000074,340.9519856000552,341.1520351000363,341.1520351000363,341.2361367000267,space,0,0.07981369993649423,None,341.2403699000133,341.75130750006065,342.7503576000454,342.73472750000656,,,,,,,,,,,,,,,,,003,001,2025-04-29_23h02.18.097,Cued GoNogo Task,2024.2.4,60.02188400579458,2025-04-29 23h02.26.136104 +0200,
block/CondBlock1.xlsx,You are about to start a block of type 1 trials.,89,89,0,Go,Go,0.24,0.05,0.2,space,blue,horizontal,space,1.364985499996692,None,space,1,0.20822689996566623,None,,,,0,0,0,0,0,89,89,89,342.7503576000454,,,,,,,,,,,,,,,,342.7350252000615,342.7503576000454,343.44998190004844,343.44998190004844,343.94943909998983,343.93375580001157,343.9345751000801,343.94943909998983,344.1991724000545,344.38257360004354,344.38257360004354,344.59996290004347,space,1,0.20822689996566623,None,344.60421590006445,345.1152039000299,346.1145594000118,346.09857789997477,,,,,,,,,,,,,,,,,003,001,2025-04-29_23h02.18.097,Cued GoNogo Task,2024.2.4,60.02188400579458,2025-04-29 23h02.26.136104 +0200,
block/CondBlock1.xlsx,You are about to start a block of type 1 trials.,90,90,0,Go,Go,0.25,0.2,0.05,space,blue,vertical,space,1.364985499996692,None,space,1,0.2766693999292329,None,,,,0,0,0,0,0,90,90,90,346.1145594000118,,,,,,,,,,,,,,,,346.09888920001686,346.1145594000118,346.8139411000302,346.8139411000302,347.31349910004064,347.29735740006436,347.2979035000317,347.31349910004064,347.56334410002455,347.7629849000368,347.7629849000368,348.04733129998203,space,1,0.2766693999292329,None,348.0512040000176,348.562497899984,349.5617702000309,349.54546300007496,,,,,,,,,,,,,,,,,003,001,2025-04-29_23h02.18.097,Cued GoNogo Task,2024.2.4,60.02188400579458,2025-04-29 23h02.26.136104 +0200,
block/CondBlock1.xlsx,You are about to start a block of type 1 trials.,91,91,0,Go,Go,0.26,0.05,0.2,space,green,horizontal,space,1.364985499996692,None,space,1,0.23805379995610565,None,,,,0,0,0,0,0,91,91,91,349.5617702000309,,,,,,,,,,,,,,,,349.5457154000178,349.5617702000309,350.26102960004937,350.26102960004937,350.7606543999864,350.74472700001206,350.7454617000185,350.7606543999864,351.0270801000297,351.210368799977,351.210368799977,351.4613507000031,space,1,0.23805379995610565,None,351.4657185000833,351.9761647999985,352.9754624000052,352.9598505999893,,,,,,,,,,,,,,,,,003,001,2025-04-29_23h02.18.097,Cued GoNogo Task,2024.2.4,60.02188400579458,2025-04-29 23h02.26.136104 +0200,
block/CondBlock1.xlsx,You are about to start a block of type 1 trials.,92,92,0,NoGo,NoGo,0.44,0.2,0.05,none,blue,vertical,space,1.364985499996692,None,None,1,,,,,,0,0,0,0,0,92,92,92,352.9754624000052,,,,,,,,,,,,,,,,352.9603939000517,352.9754624000052,353.67467840004247,353.67467840004247,354.17453560000286,354.15892920002807,354.1597482999787,354.17453560000286,354.6241682000691,354.8072705999948,354.8072705999948,355.2908863000339,None,1,,,355.2933219000697,355.8066474000225,356.8055891999975,356.7898591000121,355.3068416999886,355.3068416999886,,,,,,,,,,,,,,,003,001,2025-04-29_23h02.18.097,Cued GoNogo Task,2024.2.4,60.02188400579458,2025-04-29 23h02.26.136104 +0200,
block/CondBlock1.xlsx,You are about to start a block of type 1 trials.,93,93,0,Go,Go,0.13,0.2,0.05,space,green,vertical,space,1.364985499996692,None,space,1,0.09490939998067915,None,,,,0,0,0,0,0,93,93,93,356.8055891999975,,,,,,,,,,,,,,,,356.7902231999906,356.8055891999975,357.50510250008665,357.50510250008665,358.0047344000777,357.98877300007734,357.98943319998216,358.0047344000777,358.1377738000592,358.32114570005797,358.32114570005797,358.4223415000597,space,1,0.09490939998067915,None,358.4277329000179,358.93715990008786,359.93642370007,359.9206862000283,,,,,,,,,,,,,,,,,003,001,2025-04-29_23h02.18.097,Cued GoNogo Task,2024.2.4,60.02188400579458,2025-04-29 23h02.26.136104 +0200,
block/CondBlock1.xlsx,You are about to start a block of type 1 trials.,94,94,0,Go,Go,0.44,0.05,0.2,space,blue,horizontal,space,1.364985499996692,None,space,1,0.1112550999969244,None,,,,0,0,0,0,0,94,94,94,359.93642370007,,,,,,,,,,,,,,,,359.92103149998,359.93642370007,360.63593370001763,360.63593370001763,361.13546430005226,361.11978549999185,361.1206736000022,361.13546430005226,361.58511200000066,361.76811020006426,361.76811020006426,361.8859311999986,space,1,0.1112550999969244,None,361.8897549000103,362.40122910006903,363.4002171000466,363.38444180006627,,,,,,,,,,,,,,,,,003,001,2025-04-29_23h02.18.097,Cued GoNogo Task,2024.2.4,60.02188400579458,2025-04-29 23h02.26.136104 +0200,
block/CondBlock1.xlsx,You are about to start a block of type 1 trials.,95,95,0,Go,Go,0.15,0.2,0.05,space,green,vertical,space,1.364985499996692,None,space,1,0.14720269991084933,None,,,,0,0,0,0,0,95,95,95,363.4002171000466,,,,,,,,,,,,,,,,363.3847665999783,363.4002171000466,364.09979990008287,364.09979990008287,364.59916890005115,364.58323210000526,364.5838980000699,364.59916890005115,364.7491885999916,364.9490327000385,364.9490327000385,365.09978619997855,space,1,0.14720269991084933,None,365.1030183000257,365.61526950006373,,366.614463099977,,,,,,,,,,,,,,,,,003,001,2025-04-29_23h02.18.097,Cued GoNogo Task,2024.2.4,60.02188400579458,2025-04-29 23h02.26.136104 +0200,
block/CondBlock1.xlsx,You are about to start a block of type 1 trials.,96,96,0,Go,Go,0.49,0.2,0.05,space,green,vertical,space,1.364985499996692,None,space,1,0.11884390003979206,None,,,,0,0,0,0,0,96,96,96,366.6308086999925,,,,,,,,,,,,,,,,366.61471160000656,366.6308086999925,367.3135903000366,367.3303854999831,367.8132534000324,367.79786809999496,367.79877910006326,367.8132534000324,368.3128337999806,368.49592570005916,368.49592570005916,368.6302535000723,space,1,0.11884390003979206,None,368.63309860008303,369.14530960004777,370.144738300005,370.1285357000306,,,,,,,,,,,,,,,,,003,001,2025-04-29_23h02.18.097,Cued GoNogo Task,2024.2.4,60.02188400579458,2025-04-29 23h02.26.136104 +0200,
block/CondBlock1.xlsx,You are about to start a block of type 1 trials.,97,97,0,Go,Go,0.11,0.2,0.05,space,blue,vertical,space,1.364985499996692,None,space,1,0.09135479992255569,None,,,,0,0,0,0,0,97,97,97,370.144738300005,,,,,,,,,,,,,,,,370.12875380006153,370.144738300005,370.844320800039,370.844320800039,371.34363240003586,371.32810210005846,371.3289287000662,371.34363240003586,371.46036020002794,371.6433936000103,371.6433936000103,371.74482040002476,space,1,0.09135479992255569,None,371.7490474000806,372.25972279999405,373.25877379998565,373.24318970006425,,,,,,,,,,,,,,,,,003,001,2025-04-29_23h02.18.097,Cued GoNogo Task,2024.2.4,60.02188400579458,2025-04-29 23h02.26.136104 +0200,
block/CondBlock1.xlsx,You are about to start a block of type 1 trials.,98,98,0,Go,Go,0.26,0.05,0.2,space,green,horizontal,space,1.364985499996692,None,space,1,None,None,,,,0,0,0,0,0,98,98,98,373.25877379998565,,,,,,,,,,,,,,,,373.24354080006015,373.25877379998565,373.95819230005145,373.95819230005145,374.4579200000735,374.44209640007466,374.44294290000107,374.4579200000735,374.7242135000415,374.907460300019,374.907460300019,375.0249162000837,space,1,None,None,375.0286134000635,375.5404014000669,,376.53960600006394,,,,,,,,,,,,,,,,,003,001,2025-04-29_23h02.18.097,Cued GoNogo Task,2024.2.4,60.02188400579458,2025-04-29 23h02.26.136104 +0200,
block/CondBlock1.xlsx,You are about to start a block of type 1 trials.,99,99,0,Go,Go,0.28,0.05,0.2,space,green,horizontal,space,1.364985499996692,None,space,1,0.24316920002456754,None,,,,0,0,0,0,0,99,99,99,376.55603019997943,,,,,,,,,,,,,,,,376.5400221000891,376.55603019997943,377.2388870000141,377.25548609998077,377.7383050000062,377.72253610007465,377.72324580000713,377.7383050000062,378.0215847999789,378.2047574000899,378.2047574000899,378.4558899999829,space,1,0.24316920002456754,None,378.4604651000118,378.97066340001766,379.97240750002675,379.9542486000573,,,,,,,,,,,,,,,,,003,001,2025-04-29_23h02.18.097,Cued GoNogo Task,2024.2.4,60.02188400579458,2025-04-29 23h02.26.136104 +0200,
block/CondBlock1.xlsx,You are about to start a block of type 1 trials.,0,0,0,,,,,,,,,space,1.364985499996692,None,,,,,space,1.2422989000333473,None,0,0,0,0,,,,,,,,,,,,,,,,,,,,,,,,,,,,,,,,,,,,,,,,,,,379.97019850008655,379.97240750002675,379.97240750002675,381.22006239998154,space,1.2422989000333473,None,,,,,,,,003,001,2025-04-29_23h02.18.097,Cued GoNogo Task,2024.2.4,60.02188400579458,2025-04-29 23h02.26.136104 +0200,
block/CondBlock2.xlsx,You are about to start a block of type 2 trials.,0,0,0,Go,Go,0.18,0.05,0.2,space,green,horizontal,space,281.6763200999703,None,space,1,0.08140400005504489,None,,,,0,1,1,1,0,0,0,0,662.9604912999785,,,,,,,,,381.2242694000015,381.23550110007636,381.23550110007636,662.9220739000011,space,281.6763200999703,None,662.9584117999766,662.9604912999785,663.6367185000563,663.6698667000746,664.1361996000633,664.1201902000466,664.1208799000597,664.1361996000633,664.319602600066,664.5027317000786,664.5027317000786,664.5878370000282,space,1,0.08140400005504489,None,664.5917618999956,665.1020075000124,666.1012075999752,666.0852901000762,,,,,,,,,,,,,,,,,003,001,2025-04-29_23h02.18.097,Cued GoNogo Task,2024.2.4,60.02188400579458,2025-04-29 23h02.26.136104 +0200,
block/CondBlock2.xlsx,You are about to start a block of type 2 trials.,1,1,0,Go,Go,0.2,0.2,0.05,space,green,vertical,space,281.6763200999703,None,space,1,0.14818870008457452,None,,,,0,1,1,1,0,1,1,1,666.1012075999752,,,,,,,,,,,,,,,,666.0855301000411,666.1012075999752,666.8006900000619,666.8006900000619,667.3001970000332,667.2845950999763,667.2854459000519,667.3001970000332,667.5001395000145,667.6999520000536,667.6999520000536,667.8521008000243,space,1,0.14818870008457452,None,667.856208799989,668.3660332000582,669.3651859000092,669.3493812000379,,,,,,,,,,,,,,,,,003,001,2025-04-29_23h02.18.097,Cued GoNogo Task,2024.2.4,60.02188400579458,2025-04-29 23h02.26.136104 +0200,
block/CondBlock2.xlsx,You are about to start a block of type 2 trials.,2,2,0,Go,Go,0.22,0.05,0.2,space,blue,horizontal,space,281.6763200999703,None,space,1,0.0835321000777185,None,,,,0,1,1,1,0,2,2,2,669.3651859000092,,,,,,,,,,,,,,,,669.3497056000633,669.3651859000092,670.0646091999952,670.0646091999952,670.5642025000416,670.5488072000444,670.5497937999899,670.5642025000416,670.7973942999961,670.9806332000298,670.9806332000298,671.0664314000169,space,1,0.0835321000777185,None,671.0703360000625,671.5800957999891,672.5791216000216,672.5634724000702,,,,,,,,,,,,,,,,,003,001,2025-04-29_23h02.18.097,Cued GoNogo Task,2024.2.4,60.02188400579458,2025-04-29 23h02.26.136104 +0200,
block/CondBlock2.xlsx,You are about to start a block of type 2 trials.,3,3,0,Go,Go,0.14,0.05,0.2,space,green,horizontal,space,281.6763200999703,None,space,1,0.18432799994479865,None,,,,0,1,1,1,0,3,3,3,672.5791216000216,,,,,,,,,,,,,,,,672.56385460007,672.5791216000216,673.2787032000488,673.2787032000488,673.7783783000195,673.7623297000537,673.7629904000787,673.7783783000195,673.9281760000158,674.11130400002,674.11130400002,674.3122366000898,space,1,0.18432799994479865,None,674.3171832000371,674.8274510999909,675.8264061000664,675.8107284000143,,,,,,,,,,,,,,,,,003,001,2025-04-29_23h02.18.097,Cued GoNogo Task,2024.2.4,60.02188400579458,2025-04-29 23h02.26.136104 +0200,
block/CondBlock2.xlsx,You are about to start a block of type 2 trials.,4,4,0,Go,Go,0.26,0.05,0.2,space,blue,horizontal,space,281.6763200999703,None,space,1,0.1802843000041321,None,,,,0,1,1,1,0,4,4,4,675.8264061000664,,,,,,,,,,,,,,,,675.8109080999857,675.8264061000664,676.5258921000641,676.5258921000641,677.0257531000534,677.0095835999819,677.0102137000067,677.0257531000534,677.2920386000769,677.4752874000696,677.4752874000696,677.6596004000166,space,1,0.1802843000041321,None,677.6624956000596,678.1745665000053,679.1737295000348,679.1576220000861,,,,,,,,,,,,,,,,,003,001,2025-04-29_23h02.18.097,Cued GoNogo Task,2024.2.4,60.02188400579458,2025-04-29 23h02.26.136104 +0200,
block/CondBlock2.xlsx,You are about to start a block of type 2 trials.,5,5,0,Go,Go,0.1,0.05,0.2,space,blue,horizontal,space,281.6763200999703,None,space,1,0.22286740003619343,None,,,,0,1,1,1,0,5,5,5,679.1737295000348,,,,,,,,,,,,,,,,679.1578258000081,679.1737295000348,679.8732060000766,679.8732060000766,680.3727491999744,680.3570255000377,680.3578210000414,680.3727491999744,680.4726695000427,680.6726006000536,680.6726006000536,680.9066818000283,space,1,0.22286740003619343,None,680.9097286000615,681.4219060000032,682.4211281000171,682.4054258000106,,,,,,,,,,,,,,,,,003,001,2025-04-29_23h02.18.097,Cued GoNogo Task,2024.2.4,60.02188400579458,2025-04-29 23h02.26.136104 +0200,
block/CondBlock2.xlsx,You are about to start a block of type 2 trials.,6,6,0,NoGo,NoGo,0.3,0.2,0.05,none,green,vertical,space,281.6763200999703,None,None,1,,,,,,0,1,1,1,0,6,6,6,682.4211281000171,,,,,,,,,,,,,,,,682.4057077000616,682.4211281000171,683.1205413000425,683.1205413000425,683.6200651000254,683.6042799000861,683.6049963000696,683.6200651000254,683.9198557999916,684.1197198000737,684.1197198000737,684.602999499999,None,1,,,684.60500770004,685.1023441000143,686.1014903000323,686.0855432000244,684.6194178999867,684.6194178999867,,,,,,,,,,,,,,,003,001,2025-04-29_23h02.18.097,Cued GoNogo Task,2024.2.4,60.02188400579458,2025-04-29 23h02.26.136104 +0200,
block/CondBlock2.xlsx,You are about to start a block of type 2 trials.,7,7,0,NoGo,NoGo,0.14,0.05,0.2,none,blue,horizontal,space,281.6763200999703,None,None,1,,,,,,0,1,1,1,0,7,7,7,686.1014903000323,,,,,,,,,,,,,,,,686.0858021000167,686.1179550000234,686.8176092000213,686.8176092000213,687.3170478000538,687.301367099979,687.3020039000548,687.3170478000538,687.4670492000878,687.6501607000828,687.6501607000828,688.1339529000688,None,1,,,688.1344315999886,688.6493831999833,689.6486756000668,689.6327323000878,688.1497515999945,688.1497515999945,,,,,,,,,,,,,,,003,001,2025-04-29_23h02.18.097,Cued GoNogo Task,2024.2.4,60.02188400579458,2025-04-29 23h02.26.136104 +0200,
block/CondBlock2.xlsx,You are about to start a block of type 2 trials.,8,8,0,Go,Go,0.13,0.2,0.05,space,blue,vertical,space,281.6763200999703,None,space,1,0.27541349991224706,None,,,,0,1,1,1,0,8,8,8,689.6486756000668,,,,,,,,,,,,,,,,689.6330363000743,689.6486756000668,690.3479065999854,690.3479065999854,690.8476185000036,690.8314651000546,690.8321418000851,690.8476185000036,690.9808375000721,691.1638575000688,691.1638575000688,691.4481891000178,space,1,0.27541349991224706,None,691.4514666000614,691.9633720000274,692.9626025999896,692.9467080000322,,,,,,,,,,,,,,,,,003,001,2025-04-29_23h02.18.097,Cued GoNogo Task,2024.2.4,60.02188400579458,2025-04-29 23h02.26.136104 +0200,
block/CondBlock2.xlsx,You are about to start a block of type 2 trials.,9,9,0,Go,Go,0.43,0.2,0.05,space,green,vertical,space,281.6763200999703,None,space,1,0.15724169998429716,None,,,,0,1,1,1,0,9,9,9,692.9626025999896,,,,,,,,,,,,,,,,692.9470238999929,692.9626025999896,693.6619418000337,693.6619418000337,694.1614789000014,694.1461077000713,694.1471096000168,694.1614789000014,694.5945672000526,694.7776456000283,694.7776456000283,694.945672800066,space,1,0.15724169998429716,None,694.9497262000805,695.4603729000082,696.4595965000335,696.4441069000168,,,,,,,,,,,,,,,,,003,001,2025-04-29_23h02.18.097,Cued GoNogo Task,2024.2.4,60.02188400579458,2025-04-29 23h02.26.136104 +0200,
block/CondBlock2.xlsx,You are about to start a block of type 2 trials.,10,10,0,Go,Go,0.14,0.2,0.05,space,green,vertical,space,281.6763200999703,None,space,1,0.2722193000372499,None,,,,0,1,1,1,0,10,10,10,696.4595965000335,,,,,,,,,,,,,,,,696.4444758000318,696.4595965000335,697.1590010999935,697.1590010999935,697.6587268000003,697.6426431,697.6433531000512,697.6587268000003,697.8086956000188,697.99154060008,697.99154060008,698.2757924000034,space,1,0.2722193000372499,None,698.2787605000194,698.7908271000488,699.7902416000143,699.7745421000291,,,,,,,,,,,,,,,,,003,001,2025-04-29_23h02.18.097,Cued GoNogo Task,2024.2.4,60.02188400579458,2025-04-29 23h02.26.136104 +0200,
block/CondBlock2.xlsx,You are about to start a block of type 2 trials.,11,11,0,Go,Go,0.27,0.2,0.05,space,green,vertical,space,281.6763200999703,None,space,1,0.25533790001645684,None,,,,0,1,1,1,0,11,11,11,699.7902416000143,,,,,,,,,,,,,,,,699.7748206000542,699.7902416000143,700.4896440000739,700.4896440000739,700.9890602000523,700.9731603000546,700.9737700000405,700.9890602000523,701.2722581999842,701.4555219000904,701.4555219000904,701.72340300004,space,1,0.25533790001645684,None,701.7277654000791,702.2382710999809,703.2373575000092,703.2218028000789,,,,,,,,,,,,,,,,,003,001,2025-04-29_23h02.18.097,Cued GoNogo Task,2024.2.4,60.02188400579458,2025-04-29 23h02.26.136104 +0200,
block/CondBlock2.xlsx,You are about to start a block of type 2 trials.,12,12,0,Go,Go,0.3,0.05,0.2,space,green,horizontal,space,281.6763200999703,None,space,1,0.22327930002938956,None,,,,0,1,1,1,0,12,12,12,703.2373575000092,,,,,,,,,,,,,,,,703.2220670999959,703.2373575000092,703.9367658999981,703.9367658999981,704.4365125000477,704.4202658000868,704.4207624000264,704.4365125000477,704.7361887000734,704.9360129000852,704.9360129000852,705.1706314000767,space,1,0.22327930002938956,None,705.1759186000563,705.6853604000062,706.6844974000705,706.6682555000298,,,,,,,,,,,,,,,,,003,001,2025-04-29_23h02.18.097,Cued GoNogo Task,2024.2.4,60.02188400579458,2025-04-29 23h02.26.136104 +0200,
block/CondBlock2.xlsx,You are about to start a block of type 2 trials.,13,13,0,Go,Go,0.18,0.2,0.05,space,blue,vertical,space,281.6763200999703,None,space,1,0.22149030002765357,None,,,,0,1,1,1,0,13,13,13,706.6844974000705,,,,,,,,,,,,,,,,706.6684316999745,706.6844974000705,707.3839593000012,707.3839593000012,707.8835292999865,707.8676222000504,707.8682696999749,707.8835292999865,708.0667098000413,708.2499122000299,708.2499122000299,708.4843076000689,space,1,0.22149030002765357,None,708.4893715999788,708.9992262000451,709.9984291000292,709.983061100007,,,,,,,,,,,,,,,,,003,001,2025-04-29_23h02.18.097,Cued GoNogo Task,2024.2.4,60.02188400579458,2025-04-29 23h02.26.136104 +0200,
block/CondBlock2.xlsx,You are about to start a block of type 2 trials.,14,14,0,Go,Go,0.13,0.2,0.05,space,green,vertical,space,281.6763200999703,None,space,1,0.3183413000078872,None,,,,0,1,1,1,0,14,14,14,709.9984291000292,,,,,,,,,,,,,,,,709.9834847000893,709.9984291000292,710.6979290000163,710.6979290000163,711.197388599976,711.1813789000735,711.1818825000664,711.197388599976,711.3308168000076,711.5138133000582,711.5138133000582,711.8486458000261,space,1,0.3183413000078872,None,711.8523866999894,712.3632484000409,713.3623543999856,713.3464271000121,,,,,,,,,,,,,,,,,003,001,2025-04-29_23h02.18.097,Cued GoNogo Task,2024.2.4,60.02188400579458,2025-04-29 23h02.26.136104 +0200,
block/CondBlock2.xlsx,You are about to start a block of type 2 trials.,15,15,0,Go,Go,0.18,0.2,0.05,space,blue,vertical,space,281.6763200999703,None,space,1,0.27938459999859333,None,,,,0,1,1,1,0,15,15,15,713.3623543999856,,,,,,,,,,,,,,,,713.3466948000714,713.3623543999856,714.0618959000567,714.0618959000567,714.5614158000099,714.5450980000896,714.5456034999806,714.5614158000099,714.7444026999874,714.9278174000792,714.9278174000792,715.211837299983,space,1,0.27938459999859333,None,715.2155341000762,715.7270424000453,716.7262027000543,716.7099754000083,,,,,,,,,,,,,,,,,003,001,2025-04-29_23h02.18.097,Cued GoNogo Task,2024.2.4,60.02188400579458,2025-04-29 23h02.26.136104 +0200,
block/CondBlock2.xlsx,You are about to start a block of type 2 trials.,16,16,0,Go,Go,0.24,0.2,0.05,space,green,vertical,space,281.6763200999703,None,space,1,0.25664989999495447,None,,,,0,1,1,1,0,16,16,16,716.7262027000543,,,,,,,,,,,,,,,,716.7102309999755,716.7262027000543,717.4256357999984,717.4256357999984,717.9250886000227,717.9097840000177,717.91086980002,717.9250886000227,718.1751232000533,718.3582614000188,718.3582614000188,718.6263111000881,space,1,0.25664989999495447,None,718.6308796000667,719.1408568000188,720.1403510000091,720.1239787000231,,,,,,,,,,,,,,,,,003,001,2025-04-29_23h02.18.097,Cued GoNogo Task,2024.2.4,60.02188400579458,2025-04-29 23h02.26.136104 +0200,
block/CondBlock2.xlsx,You are about to start a block of type 2 trials.,17,17,0,Go,Go,0.26,0.2,0.05,space,blue,vertical,space,281.6763200999703,None,space,1,0.20189580006990582,None,,,,0,1,1,1,0,17,17,17,720.1403510000091,,,,,,,,,,,,,,,,720.1241808000486,720.1403510000091,720.8394467000617,720.8394467000617,721.3391251000576,721.3233656000812,721.3240881999955,721.3391251000576,721.60569700005,721.7889141000342,721.7889141000342,722.0062387000071,space,1,0.20189580006990582,None,722.0099040999776,722.5215200000675,723.5208175000735,723.5049642000813,,,,,,,,,,,,,,,,,003,001,2025-04-29_23h02.18.097,Cued GoNogo Task,2024.2.4,60.02188400579458,2025-04-29 23h02.26.136104 +0200,
block/CondBlock2.xlsx,You are about to start a block of type 2 trials.,18,18,0,Go,Go,0.1,0.05,0.2,space,blue,horizontal,space,281.6763200999703,None,space,1,0.2359948999946937,None,,,,0,1,1,1,0,18,18,18,723.5208175000735,,,,,,,,,,,,,,,,723.5052739999956,723.5208175000735,724.2201133000199,724.2201133000199,724.7196429000469,724.7039620000869,724.7048996000085,724.7196429000469,724.8196819000877,725.019441200071,725.019441200071,725.2705662000226,space,1,0.2359948999946937,None,725.274888999993,725.7854836999904,726.7848778000334,726.7689065000741,,,,,,,,,,,,,,,,,003,001,2025-04-29_23h02.18.097,Cued GoNogo Task,2024.2.4,60.02188400579458,2025-04-29 23h02.26.136104 +0200,
block/CondBlock2.xlsx,You are about to start a block of type 2 trials.,19,19,0,Go,Go,0.46,0.2,0.05,space,blue,vertical,space,281.6763200999703,None,space,1,0.25490880000870675,None,,,,0,1,1,1,0,19,19,19,726.7848778000334,,,,,,,,,,,,,,,,726.7693115000147,726.7848778000334,727.4839909999864,727.4839909999864,727.9835816000123,727.9676698000403,727.9683472000761,727.9835816000123,728.4500355999917,728.6331581000704,728.6331581000704,728.9012423000531,space,1,0.25490880000870675,None,728.9059703000821,729.4158292000648,730.4148592000129,730.3992068000371,,,,,,,,,,,,,,,,,003,001,2025-04-29_23h02.18.097,Cued GoNogo Task,2024.2.4,60.02188400579458,2025-04-29 23h02.26.136104 +0200,
block/CondBlock2.xlsx,You are about to start a block of type 2 trials.,20,20,0,Go,Go,0.3,0.05,0.2,space,blue,horizontal,space,281.6763200999703,None,space,1,0.3102089000167325,None,,,,0,1,1,1,0,20,20,20,730.4148592000129,,,,,,,,,,,,,,,,730.3994600999868,730.4148592000129,731.1144836000167,731.1144836000167,731.6140400000149,731.5984974000603,731.5994990000036,731.6140400000149,731.9137134000193,732.113818300073,732.113818300073,732.4313086000038,space,1,0.3102089000167325,None,732.4354808999924,732.946251800051,733.9453920000233,733.9297852000454,,,,,,,,,,,,,,,,,003,001,2025-04-29_23h02.18.097,Cued GoNogo Task,2024.2.4,60.02188400579458,2025-04-29 23h02.26.136104 +0200,
block/CondBlock2.xlsx,You are about to start a block of type 2 trials.,21,21,0,Go,Go,0.23,0.05,0.2,space,green,horizontal,space,281.6763200999703,None,space,1,0.23905570001807064,None,,,,0,1,1,1,0,21,21,21,733.9453920000233,,,,,,,,,,,,,,,,733.9301220000489,733.9453920000233,734.6449396000244,734.6449396000244,735.1443922000472,735.1284376999829,735.1289312000154,735.1443922000472,735.3777068000054,735.5607997999759,735.5607997999759,735.8118179000448,space,1,0.23905570001807064,None,735.816195600084,736.3268818000797,737.3258825000376,737.3107086999808,,,,,,,,,,,,,,,,,003,001,2025-04-29_23h02.18.097,Cued GoNogo Task,2024.2.4,60.02188400579458,2025-04-29 23h02.26.136104 +0200,
block/CondBlock2.xlsx,You are about to start a block of type 2 trials.,22,22,0,Go,Go,0.19,0.2,0.05,space,green,vertical,space,281.6763200999703,None,space,1,0.34048510005231947,None,,,,0,1,1,1,0,22,22,22,737.3258825000376,,,,,,,,,,,,,,,,737.3111803000793,737.3258825000376,738.0252612000331,738.0252612000331,738.5248363000574,738.5091268999968,738.5098105000798,738.5248363000574,738.7248802999966,738.9079570000758,738.9079570000758,739.2593801000621,space,1,0.34048510005231947,None,739.2637759000063,739.7740393000422,,740.7731831000419,,,,,,,,,,,,,,,,,003,001,2025-04-29_23h02.18.097,Cued GoNogo Task,2024.2.4,60.02188400579458,2025-04-29 23h02.26.136104 +0200,
block/CondBlock2.xlsx,You are about to start a block of type 2 trials.,23,23,0,NoGo,NoGo,0.41,0.2,0.05,none,blue,vertical,space,281.6763200999703,None,space,0,0.10804600000847131,None,,,,0,1,1,1,0,23,23,23,740.7896622000262,,,,,,,,,,,,,,,,740.7734653999796,740.7896622000262,741.4725318000419,741.4892087000189,741.9721138000023,741.9564246999798,741.957307600067,741.9721138000023,742.3883310999954,742.571612300002,742.571612300002,742.6897293999791,space,0,0.10804600000847131,None,742.6958637000062,743.204484899994,744.2038505000528,744.1875571000855,,,,,,,,,,,,,,,,,003,001,2025-04-29_23h02.18.097,Cued GoNogo Task,2024.2.4,60.02188400579458,2025-04-29 23h02.26.136104 +0200,
block/CondBlock2.xlsx,You are about to start a block of type 2 trials.,24,24,0,Go,Go,0.17,0.2,0.05,space,blue,vertical,space,281.6763200999703,None,space,1,0.13411270000506192,None,,,,0,1,1,1,0,24,24,24,744.2038505000528,,,,,,,,,,,,,,,,744.1878470000811,744.2038505000528,744.9030957000796,744.9030957000796,745.4027500000084,745.3866733000614,745.3872562000761,745.4027500000084,745.5857965000905,745.7690585000673,745.7690585000673,745.9200000000419,space,1,0.13411270000506192,None,745.9241650999757,746.435144499992,747.4343952999916,747.4185771000339,,,,,,,,,,,,,,,,,003,001,2025-04-29_23h02.18.097,Cued GoNogo Task,2024.2.4,60.02188400579458,2025-04-29 23h02.26.136104 +0200,
block/CondBlock2.xlsx,You are about to start a block of type 2 trials.,25,25,0,Go,Go,0.27,0.05,0.2,space,blue,horizontal,space,281.6763200999703,None,space,1,0.18894030002411455,None,,,,0,1,1,1,0,25,25,25,747.4343952999916,,,,,,,,,,,,,,,,747.4188733000774,747.4343952999916,748.1338124000467,748.1338124000467,748.6334402000066,748.617454100051,748.6181580000557,748.6334402000066,748.9163259000052,749.0996279000537,749.0996279000537,749.3004963999847,space,1,0.18894030002411455,None,749.3048553999979,749.8157179000555,750.8147990000434,750.7991202999838,,,,,,,,,,,,,,,,,003,001,2025-04-29_23h02.18.097,Cued GoNogo Task,2024.2.4,60.02188400579458,2025-04-29 23h02.26.136104 +0200,
block/CondBlock2.xlsx,You are about to start a block of type 2 trials.,26,26,0,Go,Go,0.26,0.05,0.2,space,green,horizontal,space,281.6763200999703,None,space,1,0.3605362999951467,None,,,,0,1,1,1,0,26,26,26,750.8147990000434,,,,,,,,,,,,,,,,750.7994545000838,750.8147990000434,751.5142942999955,751.5142942999955,752.0139866999816,751.9978081000736,751.9983147000894,752.0139866999816,752.2803230000427,752.4634933000198,752.4634933000198,752.8311672999989,space,1,0.3605362999951467,None,752.835956200026,753.346101299976,754.3451515000779,754.3297299999977,,,,,,,,,,,,,,,,,003,001,2025-04-29_23h02.18.097,Cued GoNogo Task,2024.2.4,60.02188400579458,2025-04-29 23h02.26.136104 +0200,
block/CondBlock2.xlsx,You are about to start a block of type 2 trials.,27,27,0,Go,Go,0.22,0.2,0.05,space,green,vertical,space,281.6763200999703,None,space,1,0.167481999960728,None,,,,0,1,1,1,0,27,27,27,754.3451515000779,,,,,,,,,,,,,,,,754.3302023999859,754.3451515000779,755.0446961000562,755.0446961000562,755.5443286000518,755.5284324000822,755.5291244999971,755.5443286000518,755.7776602000231,755.9604969000211,755.9604969000211,756.1452232000884,space,1,0.167481999960728,None,756.1505238000536,756.6599241000367,757.6591790000675,757.6433444999857,,,,,,,,,,,,,,,,,003,001,2025-04-29_23h02.18.097,Cued GoNogo Task,2024.2.4,60.02188400579458,2025-04-29 23h02.26.136104 +0200,
block/CondBlock2.xlsx,You are about to start a block of type 2 trials.,28,28,0,Go,Go,0.19,0.05,0.2,space,blue,horizontal,space,281.6763200999703,None,space,1,0.17465420009102672,None,,,,0,1,1,1,0,28,28,28,757.6591790000675,,,,,,,,,,,,,,,,757.6436187999789,757.6591790000675,758.3586623000447,758.3586623000447,758.8583170999773,758.8421480000252,758.8426684000297,758.8583170999773,759.0580401000334,759.241166700027,759.241166700027,759.4257400999777,space,1,0.17465420009102672,None,759.4304626000812,759.9407281000167,760.9398062999826,760.9241885000374,,,,,,,,,,,,,,,,,003,001,2025-04-29_23h02.18.097,Cued GoNogo Task,2024.2.4,60.02188400579458,2025-04-29 23h02.26.136104 +0200,
block/CondBlock2.xlsx,You are about to start a block of type 2 trials.,29,29,0,Go,Go,0.18,0.05,0.2,space,blue,horizontal,space,281.6763200999703,None,space,1,0.2470399000449106,None,,,,0,1,1,1,0,29,29,29,760.9398062999826,,,,,,,,,,,,,,,,760.9246195000596,760.9398062999826,761.6392809000099,761.6392809000099,762.1388765000738,762.1228144000052,762.123338000034,762.1388765000738,762.3219849000452,762.5051657999866,762.5051657999866,762.7561782000121,space,1,0.2470399000449106,None,762.7604502000613,763.2712000000756,764.2703463999787,764.2548305999953,,,,,,,,,,,,,,,,,003,001,2025-04-29_23h02.18.097,Cued GoNogo Task,2024.2.4,60.02188400579458,2025-04-29 23h02.26.136104 +0200,
block/CondBlock2.xlsx,You are about to start a block of type 2 trials.,30,30,0,NoGo,NoGo,0.23,0.2,0.05,none,blue,vertical,space,281.6763200999703,None,None,1,,,,,,0,1,1,1,0,30,30,30,764.2703463999787,,,,,,,,,,,,,,,,764.2552743999986,764.2703463999787,764.9698202,764.9698202,765.4694493000861,765.4538739999989,765.4544784000609,765.4694493000861,765.7027856999775,765.8858319000574,765.8858319000574,766.3695550999837,None,1,,,766.372315900051,766.8849053999875,767.8840949999867,767.8684031000594,766.3854063000763,766.3854063000763,,,,,,,,,,,,,,,003,001,2025-04-29_23h02.18.097,Cued GoNogo Task,2024.2.4,60.02188400579458,2025-04-29 23h02.26.136104 +0200,
block/CondBlock2.xlsx,You are about to start a block of type 2 trials.,31,31,0,Go,Go,0.43,0.2,0.05,space,green,vertical,space,281.6763200999703,None,space,1,0.26020999997854233,None,,,,0,1,1,1,0,31,31,31,767.8840949999867,,,,,,,,,,,,,,,,767.868776999996,767.8840949999867,768.5835092000198,768.5835092000198,769.0830827000318,769.0669368000235,769.0673789000139,769.0830827000318,769.5160081000067,769.6993959000101,769.6993959000101,769.9667896000901,space,1,0.26020999997854233,None,769.970335500082,770.4819013000233,771.4810919000302,771.465211700066,,,,,,,,,,,,,,,,,003,001,2025-04-29_23h02.18.097,Cued GoNogo Task,2024.2.4,60.02188400579458,2025-04-29 23h02.26.136104 +0200,
block/CondBlock2.xlsx,You are about to start a block of type 2 trials.,32,32,0,Go,Go,0.13,0.05,0.2,space,blue,horizontal,space,281.6763200999703,None,space,1,0.22741149994544685,None,,,,0,1,1,1,0,32,32,32,771.4810919000302,,,,,,,,,,,,,,,,771.4653971000807,771.4810919000302,772.1806570000481,772.1806570000481,772.6802881000331,772.6643756000558,772.6651803000132,772.6802881000331,772.8134710000595,772.9966169000836,772.9966169000836,773.2309549000347,space,1,0.22741149994544685,None,773.2338807000779,773.7460615000455,774.7454428999918,774.7290464000544,,,,,,,,,,,,,,,,,003,001,2025-04-29_23h02.18.097,Cued GoNogo Task,2024.2.4,60.02188400579458,2025-04-29 23h02.26.136104 +0200,
block/CondBlock2.xlsx,You are about to start a block of type 2 trials.,33,33,0,Go,Go,0.45,0.05,0.2,space,green,horizontal,space,281.6763200999703,None,space,1,0.18267270002979785,None,,,,0,1,1,1,0,33,33,33,774.7454428999918,,,,,,,,,,,,,,,,774.7293134999927,774.7454428999918,775.4446695999941,775.4446695999941,775.9442640000489,775.9286640000064,775.9295777999796,775.9442640000489,776.3940385000315,776.5936714999843,776.5936714999843,776.779681700049,space,1,0.18267270002979785,None,776.7862808000064,777.2931085000746,778.2922639000462,778.2765310000395,,,,,,,,,,,,,,,,,003,001,2025-04-29_23h02.18.097,Cued GoNogo Task,2024.2.4,60.02188400579458,2025-04-29 23h02.26.136104 +0200,
block/CondBlock2.xlsx,You are about to start a block of type 2 trials.,34,34,0,Go,Go,0.14,0.2,0.05,space,blue,vertical,space,281.6763200999703,None,space,1,0.2398296999745071,None,,,,0,1,1,1,0,34,34,34,778.2922639000462,,,,,,,,,,,,,,,,778.2767940000631,778.2922639000462,778.9916510999901,778.9916510999901,779.491423600004,779.4752389000496,779.4758606000105,779.491423600004,779.6410570000298,779.8244089999935,779.8244089999935,780.0751955000451,space,1,0.2398296999745071,None,780.0793612999842,780.5903858999955,781.5895291999914,781.5735006000614,,,,,,,,,,,,,,,,,003,001,2025-04-29_23h02.18.097,Cued GoNogo Task,2024.2.4,60.02188400579458,2025-04-29 23h02.26.136104 +0200,
block/CondBlock2.xlsx,You are about to start a block of type 2 trials.,35,35,0,Go,Go,0.11,0.2,0.05,space,blue,vertical,space,281.6763200999703,None,space,1,0.29560340009629726,None,,,,0,1,1,1,0,35,35,35,781.5895291999914,,,,,,,,,,,,,,,,781.573782499996,781.5895291999914,782.2890695000533,782.2890695000533,782.7885317000328,782.7724880999885,782.7734098000219,782.7885317000328,782.9051486999961,783.0884136999957,783.0884136999957,783.3893855999922,space,1,0.29560340009629726,None,783.3933942000149,783.9044780000113,784.9034437000519,784.8878278000047,,,,,,,,,,,,,,,,,003,001,2025-04-29_23h02.18.097,Cued GoNogo Task,2024.2.4,60.02188400579458,2025-04-29 23h02.26.136104 +0200,
block/CondBlock2.xlsx,You are about to start a block of type 2 trials.,36,36,0,Go,Go,0.15,0.05,0.2,space,green,horizontal,space,281.6763200999703,None,space,1,0.21852869994472712,None,,,,0,1,1,1,0,36,36,36,784.9034437000519,,,,,,,,,,,,,,,,784.8882445000345,784.9034437000519,785.6029197000898,785.6029197000898,786.102577200043,786.087097599986,786.0879366000881,786.102577200043,786.2523130000336,786.4522760000546,786.4522760000546,786.6863042999757,space,1,0.21852869994472712,None,786.6895621999865,787.2016885000048,788.2006268000696,788.1847509000218,,,,,,,,,,,,,,,,,003,001,2025-04-29_23h02.18.097,Cued GoNogo Task,2024.2.4,60.02188400579458,2025-04-29 23h02.26.136104 +0200,
block/CondBlock2.xlsx,You are about to start a block of type 2 trials.,37,37,0,Go,Go,0.15,0.2,0.05,space,green,vertical,space,281.6763200999703,None,space,1,0.22653760004322976,None,,,,0,1,1,1,0,37,37,37,788.2006268000696,,,,,,,,,,,,,,,,788.1850890000351,788.2006268000696,788.9003321999917,788.9003321999917,789.3998378000688,789.384010000038,789.3848272000905,789.3998378000688,789.5496570999967,789.7496413000626,789.7496413000626,789.9839872000739,space,1,0.22653760004322976,None,789.9880528000649,790.499077500077,791.4981302000815,791.4822880000575,,,,,,,,,,,,,,,,,003,001,2025-04-29_23h02.18.097,Cued GoNogo Task,2024.2.4,60.02188400579458,2025-04-29 23h02.26.136104 +0200,
block/CondBlock2.xlsx,You are about to start a block of type 2 trials.,38,38,0,NoGo,NoGo,0.14,0.2,0.05,none,green,vertical,space,281.6763200999703,None,None,1,,,,,,0,1,1,1,0,38,38,38,791.4981302000815,,,,,,,,,,,,,,,,791.4826241000555,791.4981302000815,792.1977103999816,792.1977103999816,792.6971173000056,792.6808531000279,792.6812200000277,792.6971173000056,792.8469407000812,793.0302765000379,793.0302765000379,793.5136139000533,None,1,,,793.5160814999836,794.0126990000717,795.0118443000829,794.9960738000227,793.529771600035,793.529771600035,,,,,,,,,,,,,,,003,001,2025-04-29_23h02.18.097,Cued GoNogo Task,2024.2.4,60.02188400579458,2025-04-29 23h02.26.136104 +0200,
block/CondBlock2.xlsx,You are about to start a block of type 2 trials.,39,39,0,Go,Go,0.46,0.2,0.05,space,green,vertical,space,281.6763200999703,None,space,1,0.17111600004136562,None,,,,0,1,1,1,0,39,39,39,795.0118443000829,,,,,,,,,,,,,,,,794.9964069999987,795.0285709000891,795.7278080000542,795.7278080000542,796.2274217000231,796.2120730000315,796.2127437000163,796.2274217000231,796.6937260000268,796.8770249000518,796.8770249000518,797.0616949000396,space,1,0.17111600004136562,None,797.066892700037,797.5764291000087,798.5757450000383,798.5598257000092,,,,,,,,,,,,,,,,,003,001,2025-04-29_23h02.18.097,Cued GoNogo Task,2024.2.4,60.02188400579458,2025-04-29 23h02.26.136104 +0200,
block/CondBlock2.xlsx,You are about to start a block of type 2 trials.,40,40,0,Go,Go,0.5,0.05,0.2,space,blue,horizontal,space,281.6763200999703,None,space,1,0.14987720001954585,None,,,,0,1,1,1,0,40,40,40,798.5757450000383,,,,,,,,,,,,,,,,798.5601412000833,798.5757450000383,799.2751178999897,799.2751178999897,799.774736899999,799.7585069000488,799.7590498999925,799.774736899999,800.2741680999752,800.4739776999922,800.4739776999922,800.6265356000513,space,1,0.14987720001954585,None,800.6312510999851,801.1401018000906,802.1393556999974,802.12377559999,,,,,,,,,,,,,,,,,003,001,2025-04-29_23h02.18.097,Cued GoNogo Task,2024.2.4,60.02188400579458,2025-04-29 23h02.26.136104 +0200,
block/CondBlock2.xlsx,You are about to start a block of type 2 trials.,41,41,0,Go,Go,0.16,0.05,0.2,space,green,horizontal,space,281.6763200999703,None,space,1,0.27943440002854913,None,,,,0,1,1,1,0,41,41,41,802.1393556999974,,,,,,,,,,,,,,,,802.1241588999983,802.1393556999974,802.8387512000045,802.8387512000045,803.3384426999837,803.3224363999907,803.323163800058,803.3384426999837,803.5047518999781,803.6880611000815,803.6880611000815,803.9724420000566,space,1,0.27943440002854913,None,803.9765534000471,804.4874792000046,805.4864534999942,805.4706046000356,,,,,,,,,,,,,,,,,003,001,2025-04-29_23h02.18.097,Cued GoNogo Task,2024.2.4,60.02188400579458,2025-04-29 23h02.26.136104 +0200,
