Block,blockMsg,thisN,thisTrialN,thisRepN,CueType,StimType,CueTime,Stim_Height,Stim_Width,CRESP,Color,Orientation,key_resp_2.keys,key_resp_2.rt,key_resp_2.duration,Key_Resp.keys,Key_Resp.corr,Key_Resp.rt,Key_Resp.duration,key_resp_3.keys,key_resp_3.rt,key_resp_3.duration,Blocks.thisRepN,Blocks.thisTrialN,Blocks.thisN,Blocks.thisIndex,Trials.thisRepN,Trials.thisTrialN,Trials.thisN,Trials.thisIndex,thisRow.t,notes,TaskIntro.started,fixation.started,key_resp.started,TaskIntro.stopped,key_resp.keys,key_resp.rt,key_resp.duration,BlockStart.started,BlockStart_Msg.started,key_resp_2.started,BlockStart.stopped,Blocks.key_resp_2.keys,Blocks.key_resp_2.rt,Blocks.key_resp_2.duration,Fixation.started,FixationPhase.started,Blank.started,FixationPhase.stopped,Blank.stopped,Fixation.stopped,Trial.started,Cue.started,Cue.stopped,GoNogo_Stim.started,Key_Resp.started,Trial.stopped,Trials.Key_Resp.keys,Trials.Key_Resp.corr,Trials.Key_Resp.rt,Trials.Key_Resp.duration,Feedback.started,Feedback_Present.started,Feedback_Present.stopped,Feedback.stopped,GoNogo_Stim.stopped,Key_Resp.stopped,BlockEnd.started,BlockEnd_Msg.started,key_resp_3.started,BlockEnd.stopped,Blocks.key_resp_3.keys,Blocks.key_resp_3.rt,Blocks.key_resp_3.duration,TaskEnd.started,ThankYou.started,key_resp_4.started,TaskEnd.stopped,key_resp_4.keys,key_resp_4.rt,key_resp_4.duration,participant,session,date,expName,psychopyVersion,frameRate,expStart,
,,,,,,,,,,,,,,,,,,,,,,,,,,,,,,,,,0.0015405999729409814,0.003894899971783161,0.003894899971783161,4.994128899998032,space,4.91201029997319,None,,,,,,,,,,,,,,,,,,,,,,,,,,,,,,,,,,,,,,,,,,,,011,001,2025-05-01_02h24.05.148,Cued GoNogo Task,2024.2.4,59.94186838000393,2025-05-01 02h24.13.127565 +0200,
block/CondBlock1.xlsx,You are about to start a block of type 1 trials.,0,0,0,Go,Go,0.13,0.05,0.2,space,blue,horizontal,space,10.101726999972016,None,space,1,0.3570219000102952,None,,,,0,0,0,0,0,0,0,0,15.205784399993718,,,,,,,,,5.00346629996784,5.006339899962768,5.006339899962768,15.115740399924107,space,10.101726999972016,None,15.202643399941735,15.205784399993718,15.831127399927936,15.914315499947406,16.330513200024143,16.31426030001603,16.314645999926142,16.330513200024143,16.463668299955316,16.647010599961504,16.647010599961504,17.014102599932812,space,1,0.3570219000102952,None,17.024009499931708,17.52961690002121,18.528817199985497,18.512969499919564,,,,,,,,,,,,,,,,,011,001,2025-05-01_02h24.05.148,Cued GoNogo Task,2024.2.4,59.94186838000393,2025-05-01 02h24.13.127565 +0200,
block/CondBlock1.xlsx,You are about to start a block of type 1 trials.,1,1,0,NoGo,NoGo,0.43,0.05,0.2,none,blue,horizontal,space,10.101726999972016,None,None,1,,,,,,0,0,0,0,0,1,1,1,18.528817199985497,,,,,,,,,,,,,,,,18.513327999971807,18.528817199985497,19.228100699954666,19.228100699954666,19.727616799995303,19.711994000012055,19.71293809998315,19.727616799995303,20.160497799981385,20.3437918999698,20.3437918999698,20.82726759999059,None,1,,,20.829098999965936,21.326354800025,22.32558920001611,22.309658200014383,20.84324099996593,20.84324099996593,,,,,,,,,,,,,,,011,001,2025-05-01_02h24.05.148,Cued GoNogo Task,2024.2.4,59.94186838000393,2025-05-01 02h24.13.127565 +0200,
block/CondBlock1.xlsx,You are about to start a block of type 1 trials.,2,2,0,Go,Go,0.12,0.2,0.05,space,blue,vertical,space,10.101726999972016,None,space,1,0.22565699997358024,None,,,,0,0,0,0,0,2,2,2,22.32558920001611,,,,,,,,,,,,,,,,22.30993510002736,22.34223569999449,23.041772000025958,23.041772000025958,23.541248900000937,23.524978299974464,23.525483799981885,23.541248900000937,23.674481899943203,23.857925300020725,23.857925300020725,24.092588600004092,space,1,0.22565699997358024,None,24.096208699978888,24.606985999969766,25.606238799984567,25.590500699938275,,,,,,,,,,,,,,,,,011,001,2025-05-01_02h24.05.148,Cued GoNogo Task,2024.2.4,59.94186838000393,2025-05-01 02h24.13.127565 +0200,
block/CondBlock1.xlsx,You are about to start a block of type 1 trials.,3,3,0,NoGo,NoGo,0.18,0.2,0.05,none,green,vertical,space,10.101726999972016,None,None,1,,,,,,0,0,0,0,0,3,3,3,25.606238799984567,,,,,,,,,,,,,,,,25.59084780002013,25.606238799984567,26.305754499975592,26.305754499975592,26.805169599945657,26.789236999931745,26.78990959993098,26.805169599945657,26.98849939997308,27.17160939995665,27.17160939995665,27.65529050002806,None,1,,,27.658264499972574,28.17069179995451,29.16988439997658,29.154194799950346,27.671146199922077,27.671146199922077,,,,,,,,,,,,,,,011,001,2025-05-01_02h24.05.148,Cued GoNogo Task,2024.2.4,59.94186838000393,2025-05-01 02h24.13.127565 +0200,
block/CondBlock1.xlsx,You are about to start a block of type 1 trials.,4,4,0,Go,Go,0.24,0.05,0.2,space,green,horizontal,space,10.101726999972016,None,space,1,0.16189650003798306,None,,,,0,0,0,0,0,4,4,4,29.16988439997658,,,,,,,,,,,,,,,,29.15452669991646,29.16988439997658,29.869639799930155,29.869639799930155,30.369018399971537,30.353363499976695,30.353990899981,30.369018399971537,30.61882259999402,30.80196159996558,30.80196159996558,30.969550699926913,space,1,0.16189650003798306,None,30.974040300003253,31.48484049993567,32.48374469997361,32.468225299962796,,,,,,,,,,,,,,,,,011,001,2025-05-01_02h24.05.148,Cued GoNogo Task,2024.2.4,59.94186838000393,2025-05-01 02h24.13.127565 +0200,
block/CondBlock1.xlsx,You are about to start a block of type 1 trials.,5,5,0,Go,Go,0.21,0.05,0.2,space,blue,horizontal,space,10.101726999972016,None,space,1,0.16139479994308203,None,,,,0,0,0,0,0,5,5,5,32.48374469997361,,,,,,,,,,,,,,,,32.46898499992676,32.48374469997361,33.183259399957024,33.183259399957024,33.682956199976616,33.6670786999166,33.667506300029345,33.682956199976616,33.8993565000128,34.08270489994902,34.08270489994902,34.250396199990064,space,1,0.16139479994308203,None,34.25077839998994,34.76544789993204,35.76474569994025,35.748679199954495,,,,,,,,,,,,,,,,,011,001,2025-05-01_02h24.05.148,Cued GoNogo Task,2024.2.4,59.94186838000393,2025-05-01 02h24.13.127565 +0200,
block/CondBlock1.xlsx,You are about to start a block of type 1 trials.,6,6,0,Go,Go,0.11,0.2,0.05,space,blue,vertical,space,10.101726999972016,None,space,1,0.14845380000770092,None,,,,0,0,0,0,0,6,6,6,35.76474569994025,,,,,,,,,,,,,,,,35.74894820002373,35.76474569994025,36.463976399973035,36.463976399973035,36.96360239991918,36.94772009993903,36.948429899988696,36.96360239991918,37.08017809991725,37.263201399939135,37.263201399939135,37.41538459993899,space,1,0.14845380000770092,None,37.42165889998432,37.929642500006594,38.92885269992985,38.91309129993897,,,,,,,,,,,,,,,,,011,001,2025-05-01_02h24.05.148,Cued GoNogo Task,2024.2.4,59.94186838000393,2025-05-01 02h24.13.127565 +0200,
block/CondBlock1.xlsx,You are about to start a block of type 1 trials.,7,7,0,Go,Go,0.15,0.2,0.05,space,blue,vertical,space,10.101726999972016,None,space,1,0.13431019999552518,None,,,,0,0,0,0,0,7,7,7,38.92885269992985,,,,,,,,,,,,,,,,38.913416799972765,38.92885269992985,39.62776750000194,39.62776750000194,40.12765379995108,40.11190239991993,40.112652299925685,40.12765379995108,40.27756989991758,40.47741289995611,40.47741289995611,40.6280055999523,space,1,0.13431019999552518,None,40.63110009999946,41.1434305999428,42.14261380000971,42.126788299996406,,,,,,,,,,,,,,,,,011,001,2025-05-01_02h24.05.148,Cued GoNogo Task,2024.2.4,59.94186838000393,2025-05-01 02h24.13.127565 +0200,
block/CondBlock1.xlsx,You are about to start a block of type 1 trials.,8,8,0,NoGo,NoGo,0.3,0.05,0.2,none,blue,horizontal,space,10.101726999972016,None,None,1,,,,,,0,0,0,0,0,8,8,8,42.14261380000971,,,,,,,,,,,,,,,,42.12707980000414,42.14261380000971,42.842137899948284,42.842137899948284,43.341690200031735,43.325933299958706,43.326673300005496,43.341690200031735,43.64137159998063,43.84109979995992,43.84109979995992,44.324930700007826,None,1,,,44.3276949999854,44.8405158999376,45.839589999988675,45.82379019993823,44.34081919991877,44.34081919991877,,,,,,,,,,,,,,,011,001,2025-05-01_02h24.05.148,Cued GoNogo Task,2024.2.4,59.94186838000393,2025-05-01 02h24.13.127565 +0200,
block/CondBlock1.xlsx,You are about to start a block of type 1 trials.,9,9,0,NoGo,NoGo,0.17,0.05,0.2,none,blue,horizontal,space,10.101726999972016,None,None,1,,,,,,0,0,0,0,0,9,9,9,45.839589999988675,,,,,,,,,,,,,,,,45.82433899992611,45.839589999988675,46.53891040000599,46.53891040000599,47.03852890001144,47.02237639995292,47.022894399939105,47.03852890001144,47.22186709998641,47.405120000010356,47.405120000010356,47.888492699945346,None,1,,,47.88897169998381,48.40418279997539,49.403234599973075,49.38734269991983,47.90459719998762,47.90459719998762,,,,,,,,,,,,,,,011,001,2025-05-01_02h24.05.148,Cued GoNogo Task,2024.2.4,59.94186838000393,2025-05-01 02h24.13.127565 +0200,
block/CondBlock1.xlsx,You are about to start a block of type 1 trials.,10,10,0,NoGo,NoGo,0.26,0.2,0.05,none,green,vertical,space,10.101726999972016,None,None,1,,,,,,0,0,0,0,0,10,10,10,49.403234599973075,,,,,,,,,,,,,,,,49.387621599948034,49.403234599973075,50.10272680001799,50.10272680001799,50.60220349999145,50.58638519991655,50.58703269995749,50.60220349999145,50.86871750000864,51.052053099963814,51.052053099963814,51.53570250002667,None,1,,,51.53626909991726,52.0510361000197,53.05021899996791,53.03438409999944,51.551498299930245,51.551498299930245,,,,,,,,,,,,,,,011,001,2025-05-01_02h24.05.148,Cued GoNogo Task,2024.2.4,59.94186838000393,2025-05-01 02h24.13.127565 +0200,
block/CondBlock1.xlsx,You are about to start a block of type 1 trials.,11,11,0,Go,Go,0.27,0.05,0.2,space,green,horizontal,space,10.101726999972016,None,space,1,0.15209430002141744,None,,,,0,0,0,0,0,11,11,11,53.05021899996791,,,,,,,,,,,,,,,,53.03468469996005,53.05021899996791,53.74962599994615,53.74962599994615,54.24938920000568,54.233253499958664,54.23386689997278,54.24938920000568,54.53248659998644,54.71583569992799,54.71583569992799,54.883080299943686,space,1,0.15209430002141744,None,54.88663750002161,55.39830549992621,56.39763070002664,56.38138739997521,,,,,,,,,,,,,,,,,011,001,2025-05-01_02h24.05.148,Cued GoNogo Task,2024.2.4,59.94186838000393,2025-05-01 02h24.13.127565 +0200,
block/CondBlock1.xlsx,You are about to start a block of type 1 trials.,12,12,0,Go,Go,0.16,0.2,0.05,space,green,vertical,space,10.101726999972016,None,space,1,0.24149889999534935,None,,,,0,0,0,0,0,12,12,12,56.39763070002664,,,,,,,,,,,,,,,,56.38161909999326,56.39763070002664,57.09710689994972,57.09710689994972,57.59654509997927,57.58083919994533,57.58155380003154,57.59654509997927,57.76329289993737,57.94635909993667,57.94635909993667,58.1971937000053,space,1,0.24149889999534935,None,58.2008926999988,58.712651500012726,59.7115397999296,59.69601399998646,,,,,,,,,,,,,,,,,011,001,2025-05-01_02h24.05.148,Cued GoNogo Task,2024.2.4,59.94186838000393,2025-05-01 02h24.13.127565 +0200,
block/CondBlock1.xlsx,You are about to start a block of type 1 trials.,13,13,0,Go,Go,0.13,0.2,0.05,space,green,vertical,space,10.101726999972016,None,space,1,0.12971370003651828,None,,,,0,0,0,0,0,13,13,13,59.7115397999296,,,,,,,,,,,,,,,,59.696432500029914,59.7115397999296,60.410859199939296,60.410859199939296,60.91061090002768,60.89460350002628,60.89521400001831,60.91061090002768,61.043773300014436,61.227016899967566,61.227016899967566,61.361350500024855,space,1,0.12971370003651828,None,61.36701629997697,61.876489499933086,62.87547999992967,62.8595397999743,,,,,,,,,,,,,,,,,011,001,2025-05-01_02h24.05.148,Cued GoNogo Task,2024.2.4,59.94186838000393,2025-05-01 02h24.13.127565 +0200,
block/CondBlock1.xlsx,You are about to start a block of type 1 trials.,14,14,0,Go,Go,0.12,0.05,0.2,space,blue,horizontal,space,10.101726999972016,None,space,1,0.11658949998673052,None,,,,0,0,0,0,0,14,14,14,62.87547999992967,,,,,,,,,,,,,,,,62.85978499997873,62.87547999992967,63.57494860002771,63.57494860002771,64.07454409997445,64.05864689999726,64.05933119996917,64.07454409997445,64.20784769998863,64.3911069999449,64.3911069999449,64.50971909996588,space,1,0.11658949998673052,None,64.51269230002072,65.02377680002246,66.02291369996965,66.00688679993618,,,,,,,,,,,,,,,,,011,001,2025-05-01_02h24.05.148,Cued GoNogo Task,2024.2.4,59.94186838000393,2025-05-01 02h24.13.127565 +0200,
block/CondBlock1.xlsx,You are about to start a block of type 1 trials.,15,15,0,Go,Go,0.45,0.2,0.05,space,blue,vertical,space,10.101726999972016,None,space,1,0.11707319994457066,None,,,,0,0,0,0,0,15,15,15,66.02291369996965,,,,,,,,,,,,,,,,66.00713739998173,66.02291369996965,66.72231929993723,66.72231929993723,67.22199849993922,67.20565589994658,67.20603010000195,67.22199849993922,67.67158219998237,67.8715023000259,67.8715023000259,68.00542980001774,space,1,0.11707319994457066,None,68.00883659999818,68.52098559995648,69.52026169991586,69.50405849993695,,,,,,,,,,,,,,,,,011,001,2025-05-01_02h24.05.148,Cued GoNogo Task,2024.2.4,59.94186838000393,2025-05-01 02h24.13.127565 +0200,
block/CondBlock1.xlsx,You are about to start a block of type 1 trials.,16,16,0,NoGo,NoGo,0.14,0.2,0.05,none,green,vertical,space,10.101726999972016,None,space,0,0.16064549994189292,None,,,,0,0,0,0,0,16,16,16,69.52026169991586,,,,,,,,,,,,,,,,69.50427919998765,69.52026169991586,70.21943459997419,70.21943459997419,70.71903489995748,70.70347980002407,70.70392819994595,70.71903489995748,70.86887429992203,71.05217999999877,71.05217999999877,71.22005310002714,space,0,0.16064549994189292,None,71.2294733999297,71.7351019999478,72.73431480000727,72.71837859996594,,,,,,,,,,,,,,,,,011,001,2025-05-01_02h24.05.148,Cued GoNogo Task,2024.2.4,59.94186838000393,2025-05-01 02h24.13.127565 +0200,
block/CondBlock1.xlsx,You are about to start a block of type 1 trials.,17,17,0,Go,Go,0.12,0.05,0.2,space,green,horizontal,space,10.101726999972016,None,space,1,0.16227079997770488,None,,,,0,0,0,0,0,17,17,17,72.73431480000727,,,,,,,,,,,,,,,,72.71873129997402,72.73431480000727,73.43363729992416,73.43363729992416,73.93329299998004,73.9171909999568,73.91772509994917,73.93329299998004,74.06633339996915,74.24961259996053,74.24961259996053,74.41712849994656,space,1,0.16227079997770488,None,74.42060820001643,74.93239710002672,75.9314374999376,75.91561849997379,,,,,,,,,,,,,,,,,011,001,2025-05-01_02h24.05.148,Cued GoNogo Task,2024.2.4,59.94186838000393,2025-05-01 02h24.13.127565 +0200,
block/CondBlock1.xlsx,You are about to start a block of type 1 trials.,18,18,0,Go,Go,0.47,0.2,0.05,space,blue,vertical,space,10.101726999972016,None,space,1,0.18367890000808984,None,,,,0,0,0,0,0,18,18,18,75.9314374999376,,,,,,,,,,,,,,,,75.91590040002484,75.9314374999376,76.6309462999925,76.6309462999925,77.13039429998025,77.11434610001743,77.11484619998373,77.13039429998025,77.61341899994295,77.79653539997526,77.79653539997526,77.9824637999991,space,1,0.18367890000808984,None,77.98720670002513,78.49595010001212,79.495250799926,79.47927509993315,,,,,,,,,,,,,,,,,011,001,2025-05-01_02h24.05.148,Cued GoNogo Task,2024.2.4,59.94186838000393,2025-05-01 02h24.13.127565 +0200,
block/CondBlock1.xlsx,You are about to start a block of type 1 trials.,19,19,0,Go,Go,0.18,0.2,0.05,space,green,vertical,space,10.101726999972016,None,space,1,0.1345763000426814,None,,,,0,0,0,0,0,19,19,19,79.495250799926,,,,,,,,,,,,,,,,79.47954279999249,79.495250799926,80.1945661000209,80.1945661000209,80.694281199947,80.67820780002512,80.67877350002527,80.694281199947,80.87755989993457,81.07722839992493,81.07722839992493,81.22825990000274,space,1,0.1345763000426814,None,81.23245969996788,81.74338330002502,82.74255329999141,82.72656899993308,,,,,,,,,,,,,,,,,011,001,2025-05-01_02h24.05.148,Cued GoNogo Task,2024.2.4,59.94186838000393,2025-05-01 02h24.13.127565 +0200,
block/CondBlock1.xlsx,You are about to start a block of type 1 trials.,20,20,0,Go,Go,0.19,0.2,0.05,space,blue,vertical,space,10.101726999972016,None,space,1,0.13730399997439235,None,,,,0,0,0,0,0,20,20,20,82.74255329999141,,,,,,,,,,,,,,,,82.72687299991958,82.74255329999141,83.44198230002075,83.44198230002075,83.94158240000252,83.92575809999835,83.92650409997441,83.94158240000252,84.14144499995746,84.32467939995695,84.32467939995695,84.47542099992279,space,1,0.13730399997439235,None,84.4779903999297,84.99074519996066,85.9899741000263,85.97412599995732,,,,,,,,,,,,,,,,,011,001,2025-05-01_02h24.05.148,Cued GoNogo Task,2024.2.4,59.94186838000393,2025-05-01 02h24.13.127565 +0200,
block/CondBlock1.xlsx,You are about to start a block of type 1 trials.,21,21,0,Go,Go,0.14,0.2,0.05,space,blue,vertical,space,10.101726999972016,None,space,1,0.18574139999691397,None,,,,0,0,0,0,0,21,21,21,85.9899741000263,,,,,,,,,,,,,,,,85.9744592999341,85.9899741000263,86.68936509999912,86.68936509999912,87.1888670999324,87.17292069992982,87.17349989991635,87.1888670999324,87.33872819994576,87.52191829995718,87.52191829995718,87.72276399994735,space,1,0.18574139999691397,None,87.72628559998702,88.23793770000339,89.23714099999052,89.22133500000928,,,,,,,,,,,,,,,,,011,001,2025-05-01_02h24.05.148,Cued GoNogo Task,2024.2.4,59.94186838000393,2025-05-01 02h24.13.127565 +0200,
block/CondBlock1.xlsx,You are about to start a block of type 1 trials.,22,22,0,Go,Go,0.15,0.2,0.05,space,blue,vertical,space,10.101726999972016,None,space,1,0.161490400088951,None,,,,0,0,0,0,0,22,22,22,89.23714099999052,,,,,,,,,,,,,,,,89.22160900000017,89.23714099999052,89.93681520002428,89.93681520002428,90.43610499997158,90.42046559997834,90.42113109992351,90.43610499997158,90.5860432999907,90.78594919992611,90.78594919992611,90.9535708000185,space,1,0.161490400088951,None,90.95751570002176,91.46889609994832,92.46786259999499,92.45241499994881,,,,,,,,,,,,,,,,,011,001,2025-05-01_02h24.05.148,Cued GoNogo Task,2024.2.4,59.94186838000393,2025-05-01 02h24.13.127565 +0200,
block/CondBlock1.xlsx,You are about to start a block of type 1 trials.,23,23,0,Go,Go,0.23,0.05,0.2,space,green,horizontal,space,10.101726999972016,None,space,1,0.17681089998222888,None,,,,0,0,0,0,0,23,23,23,92.46786259999499,,,,,,,,,,,,,,,,92.45278429996688,92.46786259999499,93.16734479996376,93.16734479996376,93.6669464999577,93.65127119992394,93.65199909999501,93.6669464999577,93.90003809996415,94.0835936999647,94.0835936999647,94.26795989996754,space,1,0.17681089998222888,None,94.27176779997535,94.78272669995204,95.78182939998806,95.76621249993332,,,,,,,,,,,,,,,,,011,001,2025-05-01_02h24.05.148,Cued GoNogo Task,2024.2.4,59.94186838000393,2025-05-01 02h24.13.127565 +0200,
block/CondBlock1.xlsx,You are about to start a block of type 1 trials.,24,24,0,Go,Go,0.2,0.2,0.05,space,blue,vertical,space,10.101726999972016,None,space,1,0.167137699900195,None,,,,0,0,0,0,0,24,24,24,95.78182939998806,,,,,,,,,,,,,,,,95.76645280001685,95.78182939998806,96.48134699999355,96.48134699999355,96.98091329995077,96.96475749998353,96.9653413000051,96.98091329995077,97.18067459994927,97.3805436999537,97.3805436999537,97.5650807999773,space,1,0.167137699900195,None,97.57016689993907,98.08008649991825,99.07938479993027,99.0633550999919,,,,,,,,,,,,,,,,,011,001,2025-05-01_02h24.05.148,Cued GoNogo Task,2024.2.4,59.94186838000393,2025-05-01 02h24.13.127565 +0200,
block/CondBlock1.xlsx,You are about to start a block of type 1 trials.,25,25,0,Go,Go,0.15,0.2,0.05,space,blue,vertical,space,10.101726999972016,None,space,1,0.12866839999333024,None,,,,0,0,0,0,0,25,25,25,99.07938479993027,,,,,,,,,,,,,,,,99.0636877999641,99.07938479993027,99.77857730002142,99.77857730002142,100.27843009994831,100.26218610000797,100.26287789992057,100.27843009994831,100.42807709996123,100.62783699994907,100.62783699994907,100.76257110002916,space,1,0.12866839999333024,None,100.76686340000015,101.27733129996341,102.27657629991882,102.26024390000384,,,,,,,,,,,,,,,,,011,001,2025-05-01_02h24.05.148,Cued GoNogo Task,2024.2.4,59.94186838000393,2025-05-01 02h24.13.127565 +0200,
block/CondBlock1.xlsx,You are about to start a block of type 1 trials.,26,26,0,NoGo,NoGo,0.2,0.2,0.05,none,blue,vertical,space,10.101726999972016,None,None,1,,,,,,0,0,0,0,0,26,26,26,102.27657629991882,,,,,,,,,,,,,,,,102.26045499998145,102.27657629991882,102.97606829996221,102.97606829996221,103.47561239998322,103.45961130002979,103.46029469999485,103.47561239998322,103.67539089999627,103.87515630002599,103.87515630002599,104.35888079996221,None,1,,,104.36192069994286,104.87445000000298,105.87357119994704,105.85768909996841,104.3746828000294,104.3746828000294,,,,,,,,,,,,,,,011,001,2025-05-01_02h24.05.148,Cued GoNogo Task,2024.2.4,59.94186838000393,2025-05-01 02h24.13.127565 +0200,
block/CondBlock1.xlsx,You are about to start a block of type 1 trials.,27,27,0,Go,Go,0.29,0.05,0.2,space,green,horizontal,space,10.101726999972016,None,space,1,0.20024730009026825,None,,,,0,0,0,0,0,27,27,27,105.87357119994704,,,,,,,,,,,,,,,,105.85800140001811,105.87357119994704,106.57306969992351,106.57306969992351,107.07267100003082,107.05674729996826,107.05749889998697,107.07267100003082,107.37219879997429,107.55540109996218,107.55540109996218,107.75775490002707,space,1,0.20024730009026825,None,107.7630653999513,108.27155559998937,109.2707712999545,109.25469049997628,,,,,,,,,,,,,,,,,011,001,2025-05-01_02h24.05.148,Cued GoNogo Task,2024.2.4,59.94186838000393,2025-05-01 02h24.13.127565 +0200,
block/CondBlock1.xlsx,You are about to start a block of type 1 trials.,28,28,0,Go,Go,0.24,0.2,0.05,space,blue,vertical,space,10.101726999972016,None,space,1,0.17266010004095733,None,,,,0,0,0,0,0,28,28,28,109.2707712999545,,,,,,,,,,,,,,,,109.25486460002139,109.2707712999545,109.97029580001254,109.97029580001254,110.46979230002034,110.45380529994145,110.45449549995828,110.46979230002034,110.71964809997007,110.90269799996167,110.90269799996167,111.08723519998603,space,1,0.17266010004095733,None,111.09115069999825,111.60208260000218,112.60136879992206,112.58523929992225,,,,,,,,,,,,,,,,,011,001,2025-05-01_02h24.05.148,Cued GoNogo Task,2024.2.4,59.94186838000393,2025-05-01 02h24.13.127565 +0200,
block/CondBlock1.xlsx,You are about to start a block of type 1 trials.,29,29,0,Go,Go,0.15,0.05,0.2,space,green,horizontal,space,10.101726999972016,None,space,1,0.16608640004415065,None,,,,0,0,0,0,0,29,29,29,112.60136879992206,,,,,,,,,,,,,,,,112.58549450000282,112.60136879992206,113.30065639992245,113.30065639992245,113.80030959995929,113.7843929999508,113.7850124000106,113.80030959995929,113.95034979993943,114.15004570002202,114.15004570002202,114.31795479997527,space,1,0.16608640004415065,None,114.32050649996381,114.8327980999602,115.83193260000553,115.81612759991549,,,,,,,,,,,,,,,,,011,001,2025-05-01_02h24.05.148,Cued GoNogo Task,2024.2.4,59.94186838000393,2025-05-01 02h24.13.127565 +0200,
block/CondBlock1.xlsx,You are about to start a block of type 1 trials.,30,30,0,Go,Go,0.23,0.2,0.05,space,green,vertical,space,10.101726999972016,None,space,1,0.16477999999187887,None,,,,0,0,0,0,0,30,30,30,115.83193260000553,,,,,,,,,,,,,,,,115.81645399995614,115.83193260000553,116.5314540999243,116.5314540999243,117.03093759994954,117.01536620000843,117.01606749999337,117.03093759994954,117.2643015999347,117.44740419997834,117.44740419997834,117.61514309991617,space,1,0.16477999999187887,None,117.61872369993944,118.13013710000087,119.12933999998495,119.11368840001523,,,,,,,,,,,,,,,,,011,001,2025-05-01_02h24.05.148,Cued GoNogo Task,2024.2.4,59.94186838000393,2025-05-01 02h24.13.127565 +0200,
block/CondBlock1.xlsx,You are about to start a block of type 1 trials.,31,31,0,Go,Go,0.28,0.2,0.05,space,green,vertical,space,10.101726999972016,None,space,1,0.1778181999688968,None,,,,0,0,0,0,0,31,31,31,119.12933999998495,,,,,,,,,,,,,,,,119.11405420000665,119.12933999998495,119.82872510002926,119.82872510002926,120.32828929997049,120.3126242000144,120.31325409992132,120.32828929997049,120.61135589994956,120.79456459998619,120.79456459998619,120.97872949996963,space,1,0.1778181999688968,None,120.98207819997333,121.49407110002358,122.49328339996282,122.47743379999883,,,,,,,,,,,,,,,,,011,001,2025-05-01_02h24.05.148,Cued GoNogo Task,2024.2.4,59.94186838000393,2025-05-01 02h24.13.127565 +0200,
block/CondBlock1.xlsx,You are about to start a block of type 1 trials.,32,32,0,Go,Go,0.19,0.2,0.05,space,green,vertical,space,10.101726999972016,None,space,1,0.15229630004614592,None,,,,0,0,0,0,0,32,32,32,122.49328339996282,,,,,,,,,,,,,,,,122.47779319994152,122.49328339996282,123.1927907000063,123.1927907000063,123.69220299995504,123.67628579994198,123.67698420002125,123.69220299995504,123.89213839999866,124.07519140001386,124.07519140001386,124.24341619992629,space,1,0.15229630004614592,None,124.24747159995604,124.75804370001424,125.75721800001338,125.74185049999505,,,,,,,,,,,,,,,,,011,001,2025-05-01_02h24.05.148,Cued GoNogo Task,2024.2.4,59.94186838000393,2025-05-01 02h24.13.127565 +0200,
block/CondBlock1.xlsx,You are about to start a block of type 1 trials.,33,33,0,Go,Go,0.12,0.2,0.05,space,green,vertical,space,10.101726999972016,None,space,1,0.16316620004363358,None,,,,0,0,0,0,0,33,33,33,125.75721800001338,,,,,,,,,,,,,,,,125.74227089993656,125.75721800001338,126.45662670000456,126.45662670000456,126.9562495999271,126.9403231999604,126.9410205000313,126.9562495999271,127.08951039996464,127.27255579992197,127.27255579992197,127.44087069993839,space,1,0.16316620004363358,None,127.44473240000661,127.95535219996236,128.9544969999697,128.93886699993163,,,,,,,,,,,,,,,,,011,001,2025-05-01_02h24.05.148,Cued GoNogo Task,2024.2.4,59.94186838000393,2025-05-01 02h24.13.127565 +0200,
block/CondBlock1.xlsx,You are about to start a block of type 1 trials.,34,34,0,Go,Go,0.18,0.2,0.05,space,blue,vertical,space,10.101726999972016,None,space,1,0.15683650004211813,None,,,,0,0,0,0,0,34,34,34,128.9544969999697,,,,,,,,,,,,,,,,128.93920649995562,128.9544969999697,129.65376729995478,129.65376729995478,130.15361789998133,130.1377859999193,130.13859599991702,130.15361789998133,130.33675110002514,130.519963299972,130.519963299972,130.68822289991658,space,1,0.15683650004211813,None,130.69307119993027,131.20272339996882,132.2019959000172,132.18584149994422,,,,,,,,,,,,,,,,,011,001,2025-05-01_02h24.05.148,Cued GoNogo Task,2024.2.4,59.94186838000393,2025-05-01 02h24.13.127565 +0200,
block/CondBlock1.xlsx,You are about to start a block of type 1 trials.,35,35,0,Go,Go,0.21,0.2,0.05,space,blue,vertical,space,10.101726999972016,None,space,1,0.1713859000010416,None,,,,0,0,0,0,0,35,35,35,132.2019959000172,,,,,,,,,,,,,,,,132.1860751999775,132.2019959000172,132.90143109997734,132.90143109997734,133.40074489999097,133.385185000021,133.38625929993577,133.40074489999097,133.61736899998505,133.80056999996305,133.80056999996305,133.9847956999438,space,1,0.1713859000010416,None,133.98832499992568,134.5000766000012,135.49910050001927,135.48326589993667,,,,,,,,,,,,,,,,,011,001,2025-05-01_02h24.05.148,Cued GoNogo Task,2024.2.4,59.94186838000393,2025-05-01 02h24.13.127565 +0200,
block/CondBlock1.xlsx,You are about to start a block of type 1 trials.,36,36,0,Go,Go,0.2,0.2,0.05,space,green,vertical,space,10.101726999972016,None,space,1,0.14623569999821484,None,,,,0,0,0,0,0,36,36,36,135.49910050001927,,,,,,,,,,,,,,,,135.48357849998865,135.49910050001927,136.19864580000285,136.19864580000285,136.69820420001633,136.68222880002577,136.68284129991662,136.69820420001633,136.89798819995485,137.09778579999693,137.09778579999693,137.24858379992656,space,1,0.14623569999821484,None,137.25196729996242,137.76387789996807,138.76317129994277,138.74723799992353,,,,,,,,,,,,,,,,,011,001,2025-05-01_02h24.05.148,Cued GoNogo Task,2024.2.4,59.94186838000393,2025-05-01 02h24.13.127565 +0200,
block/CondBlock1.xlsx,You are about to start a block of type 1 trials.,37,37,0,Go,Go,0.45,0.05,0.2,space,blue,horizontal,space,10.101726999972016,None,space,1,0.15211080003064126,None,,,,0,0,0,0,0,37,37,37,138.76317129994277,,,,,,,,,,,,,,,,138.74748609995004,138.76317129994277,139.4626121999463,139.4626121999463,139.96207929996308,139.94612869992852,139.94669779995456,139.96207929996308,140.41180350002833,140.61161999998149,140.61161999998149,140.7798339999281,space,1,0.15211080003064126,None,140.78442849998828,141.294502499979,142.29356090002693,142.27810220001265,,,,,,,,,,,,,,,,,011,001,2025-05-01_02h24.05.148,Cued GoNogo Task,2024.2.4,59.94186838000393,2025-05-01 02h24.13.127565 +0200,
block/CondBlock1.xlsx,You are about to start a block of type 1 trials.,38,38,0,Go,Go,0.13,0.05,0.2,space,blue,horizontal,space,10.101726999972016,None,space,1,0.21117679995950311,None,,,,0,0,0,0,0,38,38,38,142.29356090002693,,,,,,,,,,,,,,,,142.27852849999908,142.29356090002693,142.9929959999863,142.9929959999863,143.49252480000723,143.47670989995822,143.47737879992928,143.49252480000723,143.62581819994375,143.80903749994468,143.80903749994468,144.02689799992368,space,1,0.21117679995950311,None,144.03179559996352,144.54170499998145,145.5408221000107,145.52533540001605,,,,,,,,,,,,,,,,,011,001,2025-05-01_02h24.05.148,Cued GoNogo Task,2024.2.4,59.94186838000393,2025-05-01 02h24.13.127565 +0200,
block/CondBlock1.xlsx,You are about to start a block of type 1 trials.,39,39,0,Go,Go,0.46,0.2,0.05,space,blue,vertical,space,10.101726999972016,None,space,1,0.1503287999657914,None,,,,0,0,0,0,0,39,39,39,145.5408221000107,,,,,,,,,,,,,,,,145.52568500000052,145.5408221000107,146.24024439998902,146.24024439998902,146.7401308999397,146.72455329995137,146.72551789996214,146.7401308999397,147.20633600000292,147.38932329998352,147.38932329998352,147.54189200000837,space,1,0.1503287999657914,None,147.54564719996415,148.05547539994586,149.05470049998257,149.03870939998887,,,,,,,,,,,,,,,,,011,001,2025-05-01_02h24.05.148,Cued GoNogo Task,2024.2.4,59.94186838000393,2025-05-01 02h24.13.127565 +0200,
block/CondBlock1.xlsx,You are about to start a block of type 1 trials.,40,40,0,Go,Go,0.29,0.2,0.05,space,blue,vertical,space,10.101726999972016,None,space,1,0.25075849995482713,None,,,,0,0,0,0,0,40,40,40,149.05470049998257,,,,,,,,,,,,,,,,149.03901559999213,149.05470049998257,149.75396769994404,149.75396769994404,150.2535800000187,150.23762010002974,150.2382576999953,150.2535800000187,150.5535560999997,150.73645079997368,150.73645079997368,151.0039522999432,space,1,0.25075849995482713,None,151.00784310000017,151.51927049993537,152.51850449992344,152.50254170002881,,,,,,,,,,,,,,,,,011,001,2025-05-01_02h24.05.148,Cued GoNogo Task,2024.2.4,59.94186838000393,2025-05-01 02h24.13.127565 +0200,
block/CondBlock1.xlsx,You are about to start a block of type 1 trials.,41,41,0,Go,Go,0.22,0.2,0.05,space,blue,vertical,space,10.101726999972016,None,space,1,0.23780150001402944,None,,,,0,0,0,0,0,41,41,41,152.51850449992344,,,,,,,,,,,,,,,,152.50287019996904,152.51850449992344,153.21789069997612,153.21789069997612,153.71744179993402,153.70165329996962,153.70232669997495,153.71744179993402,153.9507190999575,154.13387189991772,154.13387189991772,154.38492899993435,space,1,0.23780150001402944,None,154.38900979992468,154.9000705999788,155.8989520999603,155.88305850001052,,,,,,,,,,,,,,,,,011,001,2025-05-01_02h24.05.148,Cued GoNogo Task,2024.2.4,59.94186838000393,2025-05-01 02h24.13.127565 +0200,
block/CondBlock1.xlsx,You are about to start a block of type 1 trials.,42,42,0,Go,Go,0.49,0.2,0.05,space,blue,vertical,space,10.101726999972016,None,space,1,0.17492949997540563,None,,,,0,0,0,0,0,42,42,42,155.8989520999603,,,,,,,,,,,,,,,,155.8833777999971,155.8989520999603,156.5983980000019,156.5983980000019,157.09800230001565,157.08209349995013,157.0826932999771,157.09800230001565,157.59758679999504,157.78087160002906,157.78087160002906,157.96520759991836,space,1,0.17492949997540563,None,157.96887969993986,158.48044940002728,,159.47965769993607,,,,,,,,,,,,,,,,,011,001,2025-05-01_02h24.05.148,Cued GoNogo Task,2024.2.4,59.94186838000393,2025-05-01 02h24.13.127565 +0200,
block/CondBlock1.xlsx,You are about to start a block of type 1 trials.,43,43,0,Go,Go,0.2,0.2,0.05,space,blue,vertical,space,10.101726999972016,None,space,1,0.11850139999296516,None,,,,0,0,0,0,0,43,43,43,159.4959667000221,,,,,,,,,,,,,,,,159.4800104999449,159.4959667000221,160.17883069999516,160.19565439992584,160.67860899993684,160.66285680001602,160.66370449995156,160.67860899993684,160.8783605999779,161.07806249998976,161.07806249998976,161.21232419996522,space,1,0.11850139999296516,None,161.21561309997924,161.72757629991975,162.72670100000687,162.71106260002125,,,,,,,,,,,,,,,,,011,001,2025-05-01_02h24.05.148,Cued GoNogo Task,2024.2.4,59.94186838000393,2025-05-01 02h24.13.127565 +0200,
block/CondBlock1.xlsx,You are about to start a block of type 1 trials.,44,44,0,Go,Go,0.3,0.05,0.2,space,blue,horizontal,space,10.101726999972016,None,space,1,0.15405310003552586,None,,,,0,0,0,0,0,44,44,44,162.72670100000687,,,,,,,,,,,,,,,,162.7114123000065,162.72670100000687,163.42623739992268,163.42623739992268,163.9259353999514,163.9095334999729,163.9100674999645,163.9259353999514,164.2257730999263,164.42536450002808,164.42536450002808,164.59315299999435,space,1,0.15405310003552586,None,164.59737789991777,165.10804449999705,166.10713729995769,166.09193029999733,,,,,,,,,,,,,,,,,011,001,2025-05-01_02h24.05.148,Cued GoNogo Task,2024.2.4,59.94186838000393,2025-05-01 02h24.13.127565 +0200,
block/CondBlock1.xlsx,You are about to start a block of type 1 trials.,45,45,0,NoGo,NoGo,0.21,0.05,0.2,none,green,horizontal,space,10.101726999972016,None,None,1,,,,,,0,0,0,0,0,45,45,45,166.10713729995769,,,,,,,,,,,,,,,,166.09226459998172,166.10713729995769,166.80679149995558,166.80679149995558,167.30632410000544,167.29019949992653,167.2906960999826,167.30632410000544,167.5226611000253,167.70589909993578,167.70589909993578,168.18956630001776,None,1,,,168.1918470999226,168.70518249995075,169.70430209999904,169.68830679997336,168.2056457999861,168.2056457999861,,,,,,,,,,,,,,,011,001,2025-05-01_02h24.05.148,Cued GoNogo Task,2024.2.4,59.94186838000393,2025-05-01 02h24.13.127565 +0200,
block/CondBlock1.xlsx,You are about to start a block of type 1 trials.,46,46,0,NoGo,NoGo,0.45,0.05,0.2,none,blue,horizontal,space,10.101726999972016,None,None,1,,,,,,0,0,0,0,0,46,46,46,169.70430209999904,,,,,,,,,,,,,,,,169.68852830003016,169.70430209999904,170.4037898000097,170.4037898000097,170.90329829999246,170.8874713999685,170.8880868999986,170.90329829999246,171.3529700000072,171.552831399953,171.552831399953,172.03668249992188,None,1,,,172.0372262999881,172.55198230000678,173.55123069998808,173.53522760001943,172.0525141999824,172.0525141999824,,,,,,,,,,,,,,,011,001,2025-05-01_02h24.05.148,Cued GoNogo Task,2024.2.4,59.94186838000393,2025-05-01 02h24.13.127565 +0200,
block/CondBlock1.xlsx,You are about to start a block of type 1 trials.,47,47,0,Go,Go,0.24,0.05,0.2,space,green,horizontal,space,10.101726999972016,None,space,1,0.2041797999991104,None,,,,0,0,0,0,0,47,47,47,173.55123069998808,,,,,,,,,,,,,,,,173.53552979999222,173.55123069998808,174.25068579998333,174.25068579998333,174.75021049997304,174.734735099948,174.73572100000456,174.75021049997304,174.99993469996843,175.18312349996995,175.18312349996995,175.40041280002333,space,1,0.2041797999991104,None,175.40400600002613,175.9156842000084,176.91506939998362,176.89893199992366,,,,,,,,,,,,,,,,,011,001,2025-05-01_02h24.05.148,Cued GoNogo Task,2024.2.4,59.94186838000393,2025-05-01 02h24.13.127565 +0200,
block/CondBlock1.xlsx,You are about to start a block of type 1 trials.,48,48,0,NoGo,NoGo,0.15,0.2,0.05,none,blue,vertical,space,10.101726999972016,None,None,1,,,,,,0,0,0,0,0,48,48,48,176.91506939998362,,,,,,,,,,,,,,,,176.89922149991617,176.91506939998362,177.61428400001023,177.61428400001023,178.11400269996375,178.0978385999333,178.09844370000064,178.11400269996375,178.2638348999899,178.4636356999399,178.4636356999399,178.94696440000553,None,1,,,178.9484696999425,179.4461985999951,180.4453293000115,180.42920479993336,178.9632289999863,178.9632289999863,,,,,,,,,,,,,,,011,001,2025-05-01_02h24.05.148,Cued GoNogo Task,2024.2.4,59.94186838000393,2025-05-01 02h24.13.127565 +0200,
block/CondBlock1.xlsx,You are about to start a block of type 1 trials.,49,49,0,Go,Go,0.12,0.05,0.2,space,blue,horizontal,space,10.101726999972016,None,space,1,0.1778827999951318,None,,,,0,0,0,0,0,49,49,49,180.4453293000115,,,,,,,,,,,,,,,,180.42940299992915,180.4620236000046,181.1615802999586,181.1615802999586,181.66112199996132,181.6450496999314,181.64545599999838,181.66112199996132,181.79420809994917,181.97743219998665,181.97743219998665,182.16164199996274,space,1,0.1778827999951318,None,182.16425769997295,182.67699019995052,183.6760409999406,183.65992509992793,,,,,,,,,,,,,,,,,011,001,2025-05-01_02h24.05.148,Cued GoNogo Task,2024.2.4,59.94186838000393,2025-05-01 02h24.13.127565 +0200,
block/CondBlock1.xlsx,You are about to start a block of type 1 trials.,50,50,0,Go,Go,0.22,0.2,0.05,space,green,vertical,space,10.101726999972016,None,space,1,0.16181209997739643,None,,,,0,0,0,0,0,50,50,50,183.6760409999406,,,,,,,,,,,,,,,,183.6601026999997,183.6760409999406,184.37561839993577,184.37561839993577,184.87511489994358,184.8589992999332,184.85941979999188,184.87511489994358,185.108185900026,185.29123929992784,185.29123929992784,185.45951279997826,space,1,0.16181209997739643,None,185.4643280999735,185.97439420002047,186.97365790000185,186.95809600001667,,,,,,,,,,,,,,,,,011,001,2025-05-01_02h24.05.148,Cued GoNogo Task,2024.2.4,59.94186838000393,2025-05-01 02h24.13.127565 +0200,
block/CondBlock1.xlsx,You are about to start a block of type 1 trials.,51,51,0,Go,Go,0.28,0.05,0.2,space,green,horizontal,space,10.101726999972016,None,space,1,0.19769920001272112,None,,,,0,0,0,0,0,51,51,51,186.97365790000185,,,,,,,,,,,,,,,,186.95856429997366,186.97365790000185,187.67289950000122,187.67289950000122,188.17262640001718,188.1564072999172,188.15703070000745,188.17262640001718,188.45562629995402,188.63894340000115,188.63894340000115,188.84003059996758,space,1,0.19769920001272112,None,188.84397049993277,189.35496829997282,190.35398449993227,190.33823340001982,,,,,,,,,,,,,,,,,011,001,2025-05-01_02h24.05.148,Cued GoNogo Task,2024.2.4,59.94186838000393,2025-05-01 02h24.13.127565 +0200,
block/CondBlock1.xlsx,You are about to start a block of type 1 trials.,52,52,0,Go,Go,0.23,0.2,0.05,space,green,vertical,space,10.101726999972016,None,space,1,0.21019260003231466,None,,,,0,0,0,0,0,52,52,52,190.35398449993227,,,,,,,,,,,,,,,,190.33855230000336,190.35398449993227,191.053408299922,191.053408299922,191.55304889997933,191.53715530002955,191.53777309996076,191.55304889997933,191.78621799999382,191.96946259995457,191.96946259995457,192.1871436999645,space,1,0.21019260003231466,None,192.19142269995064,192.7022399000125,193.70134249993134,193.68534670001827,,,,,,,,,,,,,,,,,011,001,2025-05-01_02h24.05.148,Cued GoNogo Task,2024.2.4,59.94186838000393,2025-05-01 02h24.13.127565 +0200,
block/CondBlock1.xlsx,You are about to start a block of type 1 trials.,53,53,0,Go,Go,0.22,0.05,0.2,space,green,horizontal,space,10.101726999972016,None,space,1,0.19846220000181347,None,,,,0,0,0,0,0,53,53,53,193.70134249993134,,,,,,,,,,,,,,,,193.6855651999358,193.70134249993134,194.40083629998844,194.40083629998844,194.90025720000267,194.88453409995418,194.88532999996096,194.90025720000267,195.13347719993908,195.31656269996893,195.31656269996893,195.51795749994926,space,1,0.19846220000181347,None,195.52098439994734,196.03274149994832,197.03185289993417,197.01572060002945,,,,,,,,,,,,,,,,,011,001,2025-05-01_02h24.05.148,Cued GoNogo Task,2024.2.4,59.94186838000393,2025-05-01 02h24.13.127565 +0200,
block/CondBlock1.xlsx,You are about to start a block of type 1 trials.,54,54,0,NoGo,NoGo,0.14,0.05,0.2,none,green,horizontal,space,10.101726999972016,None,None,1,,,,,,0,0,0,0,0,54,54,54,197.03185289993417,,,,,,,,,,,,,,,,197.01598259992898,197.03185289993417,197.73136049997993,197.73136049997993,198.23090169997886,198.2150307999691,198.21575380000286,198.23090169997886,198.38080019992776,198.56392079999205,198.56392079999205,199.04748289997224,None,1,,,199.0497641999973,199.54650820000097,200.5455375999445,200.52946799993515,199.06344029994216,199.06344029994216,,,,,,,,,,,,,,,011,001,2025-05-01_02h24.05.148,Cued GoNogo Task,2024.2.4,59.94186838000393,2025-05-01 02h24.13.127565 +0200,
block/CondBlock1.xlsx,You are about to start a block of type 1 trials.,55,55,0,Go,Go,0.15,0.2,0.05,space,blue,vertical,space,10.101726999972016,None,space,1,0.1495756000513211,None,,,,0,0,0,0,0,55,55,55,200.5455375999445,,,,,,,,,,,,,,,,200.52963330002967,200.5624118000269,201.26181049994193,201.26181049994193,201.76146810001228,201.745134399971,201.74572060001083,201.76146810001228,201.91114829992875,202.11093730002176,202.11093730002176,202.26302279997617,space,1,0.1495756000513211,None,202.26816149998922,202.77714589994866,203.77643179998267,203.7606585000176,,,,,,,,,,,,,,,,,011,001,2025-05-01_02h24.05.148,Cued GoNogo Task,2024.2.4,59.94186838000393,2025-05-01 02h24.13.127565 +0200,
block/CondBlock1.xlsx,You are about to start a block of type 1 trials.,56,56,0,Go,Go,0.47,0.2,0.05,space,blue,vertical,space,10.101726999972016,None,space,1,0.18557889992371202,None,,,,0,0,0,0,0,56,56,56,203.77643179998267,,,,,,,,,,,,,,,,203.76099229999818,203.77643179998267,204.4757262999192,204.4757262999192,204.97526169999037,204.95942670002114,204.96006449998822,204.97526169999037,205.458360599936,205.64150639995933,205.64150639995933,205.84256070002448,space,1,0.18557889992371202,None,205.84695719997399,206.35748310002964,207.35664949996863,207.34074999997392,,,,,,,,,,,,,,,,,011,001,2025-05-01_02h24.05.148,Cued GoNogo Task,2024.2.4,59.94186838000393,2025-05-01 02h24.13.127565 +0200,
block/CondBlock1.xlsx,You are about to start a block of type 1 trials.,57,57,0,NoGo,NoGo,0.42,0.2,0.05,none,green,vertical,space,10.101726999972016,None,None,1,,,,,,0,0,0,0,0,57,57,57,207.35664949996863,,,,,,,,,,,,,,,,207.34103060001507,207.35664949996863,208.05624279996846,208.05624279996846,208.55575850000605,208.539899699972,208.5406574999215,208.55575850000605,208.98886039992794,209.17202779999934,209.17202779999934,209.65573869994842,None,1,,,209.65839779993985,210.17101249995176,211.1702514999779,211.15428879996762,209.67143649992067,209.67143649992067,,,,,,,,,,,,,,,011,001,2025-05-01_02h24.05.148,Cued GoNogo Task,2024.2.4,59.94186838000393,2025-05-01 02h24.13.127565 +0200,
block/CondBlock1.xlsx,You are about to start a block of type 1 trials.,58,58,0,Go,Go,0.22,0.05,0.2,space,green,horizontal,space,10.101726999972016,None,space,1,0.2587554999627173,None,,,,0,0,0,0,0,58,58,58,211.1702514999779,,,,,,,,,,,,,,,,211.15458189998753,211.1702514999779,211.8696358000161,211.8696358000161,212.36943179997616,212.3535701999208,212.35445340001024,212.36943179997616,212.6024802000029,212.785550499917,212.785550499917,213.05319120001514,space,1,0.2587554999627173,None,213.05854729993735,213.56843919993844,214.56760139996186,214.55177199991886,,,,,,,,,,,,,,,,,011,001,2025-05-01_02h24.05.148,Cued GoNogo Task,2024.2.4,59.94186838000393,2025-05-01 02h24.13.127565 +0200,
block/CondBlock1.xlsx,You are about to start a block of type 1 trials.,59,59,0,Go,Go,0.3,0.2,0.05,space,blue,vertical,space,10.101726999972016,None,space,1,0.1452708999859169,None,,,,0,0,0,0,0,59,59,59,214.56760139996186,,,,,,,,,,,,,,,,214.55210400000215,214.56760139996186,215.26692099997308,215.26692099997308,215.76647419994697,215.75031269993633,215.75086289993487,215.76647419994697,216.06608449993655,216.26593549991958,216.26593549991958,216.41718360001687,space,1,0.1452708999859169,None,216.42109680001158,216.93222319998313,217.93136449996382,217.91526179993525,,,,,,,,,,,,,,,,,011,001,2025-05-01_02h24.05.148,Cued GoNogo Task,2024.2.4,59.94186838000393,2025-05-01 02h24.13.127565 +0200,
block/CondBlock1.xlsx,You are about to start a block of type 1 trials.,60,60,0,NoGo,NoGo,0.24,0.2,0.05,none,blue,vertical,space,10.101726999972016,None,None,1,,,,,,0,0,0,0,0,60,60,60,217.93136449996382,,,,,,,,,,,,,,,,217.91552179993596,217.93136449996382,218.63067590002902,218.63067590002902,219.13038109999616,219.1143909000093,219.1150054000318,219.13038109999616,219.38017080002464,219.56332409998868,219.56332409998868,220.04705369996373,None,1,,,220.0495673000114,220.54575950000435,221.54509799997322,221.5290829000296,220.06278239993844,220.06278239993844,,,,,,,,,,,,,,,011,001,2025-05-01_02h24.05.148,Cued GoNogo Task,2024.2.4,59.94186838000393,2025-05-01 02h24.13.127565 +0200,
block/CondBlock1.xlsx,You are about to start a block of type 1 trials.,61,61,0,NoGo,NoGo,0.1,0.2,0.05,none,green,vertical,space,10.101726999972016,None,None,1,,,,,,0,0,0,0,0,61,61,61,221.54509799997322,,,,,,,,,,,,,,,,221.52934120001737,221.5617844000226,222.26087230001576,222.26087230001576,222.76073949993588,222.74471609992906,222.74516950000543,222.76073949993588,222.86048599996138,223.06051209999714,223.06051209999714,223.54408319992945,None,1,,,223.54454789997544,224.05975989997387,225.05894180003088,225.04270520003047,223.56003930000588,223.56003930000588,,,,,,,,,,,,,,,011,001,2025-05-01_02h24.05.148,Cued GoNogo Task,2024.2.4,59.94186838000393,2025-05-01 02h24.13.127565 +0200,
block/CondBlock1.xlsx,You are about to start a block of type 1 trials.,62,62,0,Go,Go,0.45,0.05,0.2,space,blue,horizontal,space,10.101726999972016,None,space,1,0.1522399999666959,None,,,,0,0,0,0,0,62,62,62,225.05894180003088,,,,,,,,,,,,,,,,225.04297369997948,225.05894180003088,225.7582918999251,225.7582918999251,226.25781669991557,226.24228110001422,226.2434889000142,226.25781669991557,226.70749739999883,226.90722809999716,226.90722809999716,227.07523429999128,space,1,0.1522399999666959,None,227.07930240000132,227.59007549996022,,228.5891109999502,,,,,,,,,,,,,,,,,011,001,2025-05-01_02h24.05.148,Cued GoNogo Task,2024.2.4,59.94186838000393,2025-05-01 02h24.13.127565 +0200,
block/CondBlock1.xlsx,You are about to start a block of type 1 trials.,63,63,0,Go,Go,0.1,0.05,0.2,space,green,horizontal,space,10.101726999972016,None,space,1,0.16526290006004274,None,,,,0,0,0,0,0,63,63,63,228.60561720002443,,,,,,,,,,,,,,,,228.58934559999034,228.60561720002443,229.2885924000293,229.3051196000306,229.78818819997832,229.77207439998165,229.7727040000027,229.78818819997832,229.88813380000647,230.08782769995742,230.08782769995742,230.25620179995894,space,1,0.16526290006004274,None,230.2599145999411,230.77071239997167,231.77001139998902,231.75397550000343,,,,,,,,,,,,,,,,,011,001,2025-05-01_02h24.05.148,Cued GoNogo Task,2024.2.4,59.94186838000393,2025-05-01 02h24.13.127565 +0200,
block/CondBlock1.xlsx,You are about to start a block of type 1 trials.,64,64,0,Go,Go,0.19,0.05,0.2,space,blue,horizontal,space,10.101726999972016,None,space,1,0.17177630006335676,None,,,,0,0,0,0,0,64,64,64,231.77001139998902,,,,,,,,,,,,,,,,231.75422220001929,231.77001139998902,232.4692350999685,232.4692350999685,232.96889120002743,232.95325030002277,232.95416309998836,232.96889120002743,233.16869269998278,233.35209559998475,233.35209559998475,233.53636169992387,space,1,0.17177630006335676,None,233.5403023000108,234.05151030002162,235.05049469997175,235.03462599997874,,,,,,,,,,,,,,,,,011,001,2025-05-01_02h24.05.148,Cued GoNogo Task,2024.2.4,59.94186838000393,2025-05-01 02h24.13.127565 +0200,
block/CondBlock1.xlsx,You are about to start a block of type 1 trials.,65,65,0,Go,Go,0.21,0.2,0.05,space,blue,vertical,space,10.101726999972016,None,space,1,0.1473021999699995,None,,,,0,0,0,0,0,65,65,65,235.05049469997175,,,,,,,,,,,,,,,,235.03485910000745,235.05049469997175,235.7499903999269,235.7499903999269,236.24957839993294,236.23399709991645,236.23479889996815,236.24957839993294,236.4660734999925,236.64935680001508,236.64935680001508,236.80058749997988,space,1,0.1473021999699995,None,236.8045177999884,237.31549329997506,238.31469559995458,238.29882819997147,,,,,,,,,,,,,,,,,011,001,2025-05-01_02h24.05.148,Cued GoNogo Task,2024.2.4,59.94186838000393,2025-05-01 02h24.13.127565 +0200,
block/CondBlock1.xlsx,You are about to start a block of type 1 trials.,66,66,0,Go,Go,0.18,0.05,0.2,space,blue,horizontal,space,10.101726999972016,None,space,1,0.13200779992621392,None,,,,0,0,0,0,0,66,66,66,238.31469559995458,,,,,,,,,,,,,,,,238.2991664999863,238.31469559995458,239.01397839991841,239.01397839991841,239.51348329999018,239.49762439995538,239.4982372999657,239.51348329999018,239.69697259995155,239.879973199917,239.879973199917,240.01493890001439,space,1,0.13200779992621392,None,240.01858059992082,240.52959950000513,,241.529029599973,,,,,,,,,,,,,,,,,011,001,2025-05-01_02h24.05.148,Cued GoNogo Task,2024.2.4,59.94186838000393,2025-05-01 02h24.13.127565 +0200,
block/CondBlock1.xlsx,You are about to start a block of type 1 trials.,67,67,0,Go,Go,0.29,0.2,0.05,space,green,vertical,space,10.101726999972016,None,space,1,0.15251550008542836,None,,,,0,0,0,0,0,67,67,67,241.5452382999938,,,,,,,,,,,,,,,,241.52942069992423,241.5452382999938,242.22820839995984,242.24477029999252,242.72784219996538,242.71176189999096,242.71247639996,242.72784219996538,243.0275586999487,243.21060380002018,243.21060380002018,243.37821819994133,space,1,0.15251550008542836,None,243.3826111999806,243.89339380001184,244.89250339998398,244.8769980999641,,,,,,,,,,,,,,,,,011,001,2025-05-01_02h24.05.148,Cued GoNogo Task,2024.2.4,59.94186838000393,2025-05-01 02h24.13.127565 +0200,
block/CondBlock1.xlsx,You are about to start a block of type 1 trials.,68,68,0,NoGo,NoGo,0.24,0.2,0.05,none,blue,vertical,space,10.101726999972016,None,None,1,,,,,,0,0,0,0,0,68,68,68,244.89250339998398,,,,,,,,,,,,,,,,244.87725979997776,244.89250339998398,245.5919357999228,245.5919357999228,246.09141849994194,246.07597150001675,246.07703699998092,246.09141849994194,246.34139650000725,246.52452410000842,246.52452410000842,247.00805740000214,None,1,,,247.01050769991707,247.52356959995814,248.52277519996278,248.50704679999035,247.0239899000153,247.0239899000153,,,,,,,,,,,,,,,011,001,2025-05-01_02h24.05.148,Cued GoNogo Task,2024.2.4,59.94186838000393,2025-05-01 02h24.13.127565 +0200,
block/CondBlock1.xlsx,You are about to start a block of type 1 trials.,69,69,0,Go,Go,0.27,0.05,0.2,space,green,horizontal,space,10.101726999972016,None,space,1,0.12800189992412925,None,,,,0,0,0,0,0,69,69,69,248.52277519996278,,,,,,,,,,,,,,,,248.507360199932,248.52277519996278,249.22223249997478,249.22223249997478,249.7219744999893,249.70607379998546,249.7068371999776,249.7219744999893,250.00491589994635,250.18823049997445,250.18823049997445,250.3225616000127,space,1,0.12800189992412925,None,250.32845139992423,250.8375811999431,251.83667779993266,251.82089760003146,,,,,,,,,,,,,,,,,011,001,2025-05-01_02h24.05.148,Cued GoNogo Task,2024.2.4,59.94186838000393,2025-05-01 02h24.13.127565 +0200,
block/CondBlock1.xlsx,You are about to start a block of type 1 trials.,70,70,0,Go,Go,0.25,0.2,0.05,space,green,vertical,space,10.101726999972016,None,space,1,0.12584150000475347,None,,,,0,0,0,0,0,70,70,70,251.83667779993266,,,,,,,,,,,,,,,,251.82115819992032,251.83667779993266,252.53633049991913,252.53633049991913,253.03598159994,253.01993259997107,253.0206064999802,253.03598159994,253.28585929994006,253.48542519996408,253.48542519996408,253.62001660000533,space,1,0.12584150000475347,None,253.62543529993854,254.134867799934,255.13403610000387,255.1185334000038,,,,,,,,,,,,,,,,,011,001,2025-05-01_02h24.05.148,Cued GoNogo Task,2024.2.4,59.94186838000393,2025-05-01 02h24.13.127565 +0200,
block/CondBlock1.xlsx,You are about to start a block of type 1 trials.,71,71,0,Go,Go,0.28,0.05,0.2,space,green,horizontal,space,10.101726999972016,None,space,1,0.1399368999991566,None,,,,0,0,0,0,0,71,71,71,255.13403610000387,,,,,,,,,,,,,,,,255.11886669998057,255.13403610000387,255.83355709991883,255.83355709991883,256.33337180002127,256.3172785999486,256.3180046000052,256.33337180002127,256.61630719993263,256.7997309999773,256.7997309999773,256.95069389999844,space,1,0.1399368999991566,None,256.9553355999524,257.4653957999544,258.4647487999173,258.44879379996564,,,,,,,,,,,,,,,,,011,001,2025-05-01_02h24.05.148,Cued GoNogo Task,2024.2.4,59.94186838000393,2025-05-01 02h24.13.127565 +0200,
block/CondBlock1.xlsx,You are about to start a block of type 1 trials.,72,72,0,Go,Go,0.14,0.05,0.2,space,blue,horizontal,space,10.101726999972016,None,space,1,0.2002966000000015,None,,,,0,0,0,0,0,72,72,72,258.4647487999173,,,,,,,,,,,,,,,,258.44908509997185,258.4647487999173,259.1641177999554,259.1641177999554,259.6637948999414,259.6477016999852,259.64838999998756,259.6637948999414,259.81371919997036,259.99663329997566,259.99663329997566,260.1993012999883,space,1,0.2002966000000015,None,260.2032519999193,260.7129274000181,261.71220800001174,261.69621840002947,,,,,,,,,,,,,,,,,011,001,2025-05-01_02h24.05.148,Cued GoNogo Task,2024.2.4,59.94186838000393,2025-05-01 02h24.13.127565 +0200,
block/CondBlock1.xlsx,You are about to start a block of type 1 trials.,73,73,0,Go,Go,0.11,0.05,0.2,space,blue,horizontal,space,10.101726999972016,None,space,1,0.2166615000460297,None,,,,0,0,0,0,0,73,73,73,261.71220800001174,,,,,,,,,,,,,,,,261.69647219998296,261.71220800001174,262.4114234999288,262.4114234999288,262.9109631999163,262.8953578999499,262.8959352999227,262.9109631999163,263.0275935999816,263.21083979995456,263.21083979995456,263.4298082999885,space,1,0.2166615000460297,None,263.433909400017,263.94349410000723,264.94274859991856,264.927290200023,,,,,,,,,,,,,,,,,011,001,2025-05-01_02h24.05.148,Cued GoNogo Task,2024.2.4,59.94186838000393,2025-05-01 02h24.13.127565 +0200,
block/CondBlock1.xlsx,You are about to start a block of type 1 trials.,74,74,0,Go,Go,0.22,0.2,0.05,space,blue,vertical,space,10.101726999972016,None,space,1,0.15765439998358488,None,,,,0,0,0,0,0,74,74,74,264.94274859991856,,,,,,,,,,,,,,,,264.9274753999198,264.94274859991856,265.6421530999942,265.6421530999942,266.1416919999756,266.1259445999749,266.12670849997085,266.1416919999756,266.37468729994725,266.55801559996326,266.55801559996326,266.7255655999761,space,1,0.15765439998358488,None,266.7290479999501,267.24088649998885,268.239991899929,268.2238786999369,,,,,,,,,,,,,,,,,011,001,2025-05-01_02h24.05.148,Cued GoNogo Task,2024.2.4,59.94186838000393,2025-05-01 02h24.13.127565 +0200,
block/CondBlock1.xlsx,You are about to start a block of type 1 trials.,75,75,0,Go,Go,0.26,0.05,0.2,space,blue,horizontal,space,10.101726999972016,None,space,1,0.1707063999492675,None,,,,0,0,0,0,0,75,75,75,268.239991899929,,,,,,,,,,,,,,,,268.2241559999529,268.239991899929,268.93948870000895,268.93948870000895,269.4389377000043,269.4230316999601,269.4235952999443,269.4389377000043,269.70543580001686,269.88846549997106,269.88846549997106,270.07302719994914,space,1,0.1707063999492675,None,270.07721279992256,270.58791659993585,271.58726409997325,271.57138789992314,,,,,,,,,,,,,,,,,011,001,2025-05-01_02h24.05.148,Cued GoNogo Task,2024.2.4,59.94186838000393,2025-05-01 02h24.13.127565 +0200,
block/CondBlock1.xlsx,You are about to start a block of type 1 trials.,76,76,0,Go,Go,0.14,0.2,0.05,space,green,vertical,space,10.101726999972016,None,space,1,0.10863130004145205,None,,,,0,0,0,0,0,76,76,76,271.58726409997325,,,,,,,,,,,,,,,,271.5718210999621,271.58726409997325,272.28673769999295,272.28673769999295,272.7861929999199,272.77020479994826,272.7707567999605,272.7861929999199,272.93631699995603,273.1193954999326,273.1193954999326,273.2374505000189,space,1,0.10863130004145205,None,273.24262019991875,273.75231599994004,,274.75153000000864,,,,,,,,,,,,,,,,,011,001,2025-05-01_02h24.05.148,Cued GoNogo Task,2024.2.4,59.94186838000393,2025-05-01 02h24.13.127565 +0200,
block/CondBlock1.xlsx,You are about to start a block of type 1 trials.,77,77,0,Go,Go,0.18,0.05,0.2,space,green,horizontal,space,10.101726999972016,None,space,1,0.09572690003551543,None,,,,0,0,0,0,0,77,77,77,274.7681402999442,,,,,,,,,,,,,,,,274.7518299999647,274.7681402999442,275.4507790999487,275.4672833000077,275.95020249998197,275.934442400001,275.9351400999585,275.95020249998197,276.13342690002173,276.3164869999746,276.3164869999746,276.41846590000205,space,1,0.09572690003551543,None,276.4219404999167,276.93279490002897,277.93202750000637,277.91602499992587,,,,,,,,,,,,,,,,,011,001,2025-05-01_02h24.05.148,Cued GoNogo Task,2024.2.4,59.94186838000393,2025-05-01 02h24.13.127565 +0200,
block/CondBlock1.xlsx,You are about to start a block of type 1 trials.,78,78,0,NoGo,NoGo,0.27,0.05,0.2,none,blue,horizontal,space,10.101726999972016,None,None,1,,,,,,0,0,0,0,0,78,78,78,277.93202750000637,,,,,,,,,,,,,,,,277.9162661000155,277.93202750000637,278.63133859995287,278.63133859995287,279.13082039996516,279.11481119995005,279.11521930003073,279.13082039996516,279.41403619991615,279.5972145999549,279.5972145999549,280.0807249000063,None,1,,,280.0825576999923,280.57978929998353,281.578891400015,281.56294129998423,280.0967547999462,280.0967547999462,,,,,,,,,,,,,,,011,001,2025-05-01_02h24.05.148,Cued GoNogo Task,2024.2.4,59.94186838000393,2025-05-01 02h24.13.127565 +0200,
block/CondBlock1.xlsx,You are about to start a block of type 1 trials.,79,79,0,NoGo,NoGo,0.26,0.2,0.05,none,blue,vertical,space,10.101726999972016,None,None,1,,,,,,0,0,0,0,0,79,79,79,281.578891400015,,,,,,,,,,,,,,,,281.56331919995137,281.5957333999686,282.29488780000247,282.29488780000247,282.7947163999779,282.7793645999627,282.7804730000207,282.7947163999779,283.0612236999441,283.2444104999304,283.2444104999304,283.72789610002656,None,1,,,283.7283735999372,284.2433545999229,285.2426656000316,285.2270418999251,283.74399609991815,283.74399609991815,,,,,,,,,,,,,,,011,001,2025-05-01_02h24.05.148,Cued GoNogo Task,2024.2.4,59.94186838000393,2025-05-01 02h24.13.127565 +0200,
block/CondBlock1.xlsx,You are about to start a block of type 1 trials.,80,80,0,Go,Go,0.22,0.2,0.05,space,green,vertical,space,10.101726999972016,None,space,1,0.13800890010315925,None,,,,0,0,0,0,0,80,80,80,285.2426656000316,,,,,,,,,,,,,,,,285.2272773999721,285.2426656000316,285.94206719996873,285.94206719996873,286.44145419995766,286.4259397999849,286.4266579999821,286.44145419995766,286.674780500005,286.8579849000089,286.8579849000089,287.0087802999187,space,1,0.13800890010315925,None,287.0119131000247,287.52426480001304,,288.52352169994265,,,,,,,,,,,,,,,,,011,001,2025-05-01_02h24.05.148,Cued GoNogo Task,2024.2.4,59.94186838000393,2025-05-01 02h24.13.127565 +0200,
block/CondBlock1.xlsx,You are about to start a block of type 1 trials.,81,81,0,Go,Go,0.5,0.2,0.05,space,green,vertical,space,10.101726999972016,None,space,1,0.14240919996518642,None,,,,0,0,0,0,0,81,81,81,288.5400139000267,,,,,,,,,,,,,,,,288.52382180001587,288.5400139000267,289.2227577000158,289.23951320000924,289.72229259996675,289.7065131999552,289.70726089994423,289.72229259996675,290.2219297999982,290.4216489000246,290.4216489000246,290.57303620001767,space,1,0.14240919996518642,None,290.5767775999848,291.08786259999033,292.0868812999688,292.0711755999364,,,,,,,,,,,,,,,,,011,001,2025-05-01_02h24.05.148,Cued GoNogo Task,2024.2.4,59.94186838000393,2025-05-01 02h24.13.127565 +0200,
block/CondBlock1.xlsx,You are about to start a block of type 1 trials.,82,82,0,Go,Go,0.43,0.05,0.2,space,green,horizontal,space,10.101726999972016,None,space,1,0.1577849000459537,None,,,,0,0,0,0,0,82,82,82,292.0868812999688,,,,,,,,,,,,,,,,292.07144169998355,292.0868812999688,292.78642799996305,292.78642799996305,293.28600079996977,293.27006230002735,293.2707143999869,293.28600079996977,293.7190034999512,293.90232140000444,293.90232140000444,294.06993180001155,space,1,0.1577849000459537,None,294.0735165999504,294.5850695000263,295.58414539997466,295.56828809995204,,,,,,,,,,,,,,,,,011,001,2025-05-01_02h24.05.148,Cued GoNogo Task,2024.2.4,59.94186838000393,2025-05-01 02h24.13.127565 +0200,
block/CondBlock1.xlsx,You are about to start a block of type 1 trials.,83,83,0,Go,Go,0.25,0.2,0.05,space,green,vertical,space,10.101726999972016,None,space,1,0.1388388000195846,None,,,,0,0,0,0,0,83,83,83,295.58414539997466,,,,,,,,,,,,,,,,295.5686273999745,295.58414539997466,296.2833580999868,296.2833580999868,296.7832028999692,296.7669941999484,296.7677694000304,296.7832028999692,297.0328957999591,297.2328175000148,297.2328175000148,297.3838271999266,space,1,0.1388388000195846,None,297.3883335000137,297.89902859996073,298.898136899923,298.882193599944,,,,,,,,,,,,,,,,,011,001,2025-05-01_02h24.05.148,Cued GoNogo Task,2024.2.4,59.94186838000393,2025-05-01 02h24.13.127565 +0200,
block/CondBlock1.xlsx,You are about to start a block of type 1 trials.,84,84,0,NoGo,NoGo,0.14,0.2,0.05,none,green,vertical,space,10.101726999972016,None,None,1,,,,,,0,0,0,0,0,84,84,84,298.898136899923,,,,,,,,,,,,,,,,298.882516499958,298.898136899923,299.5976377999177,299.5976377999177,300.09721009992063,300.0810223999433,300.0815600999631,300.09721009992063,300.2470681000268,300.43023069994524,300.43023069994524,300.91375920001883,None,1,,,300.91555729997344,301.42927630001213,302.42848789994605,302.4126511999639,300.9296413999982,300.9296413999982,,,,,,,,,,,,,,,011,001,2025-05-01_02h24.05.148,Cued GoNogo Task,2024.2.4,59.94186838000393,2025-05-01 02h24.13.127565 +0200,
block/CondBlock1.xlsx,You are about to start a block of type 1 trials.,85,85,0,Go,Go,0.2,0.05,0.2,space,blue,horizontal,space,10.101726999972016,None,space,1,0.1840075000654906,None,,,,0,0,0,0,0,85,85,85,302.42848789994605,,,,,,,,,,,,,,,,302.41298709996045,302.42848789994605,303.12781199999154,303.12781199999154,303.6275497999741,303.6112540999893,303.61174580000807,303.6275497999741,303.8274846000131,304.0270438999869,304.0270438999869,304.2278805000242,space,1,0.1840075000654906,None,304.23115010000765,304.7433089999249,305.7425990999909,305.727091299952,,,,,,,,,,,,,,,,,011,001,2025-05-01_02h24.05.148,Cued GoNogo Task,2024.2.4,59.94186838000393,2025-05-01 02h24.13.127565 +0200,
block/CondBlock1.xlsx,You are about to start a block of type 1 trials.,86,86,0,Go,Go,0.16,0.2,0.05,space,blue,vertical,space,10.101726999972016,None,space,1,0.19358800002373755,None,,,,0,0,0,0,0,86,86,86,305.7425990999909,,,,,,,,,,,,,,,,305.72738069994375,305.7425990999909,306.4420772999292,306.4420772999292,306.941553200013,306.92571769992355,306.92647659999784,306.941553200013,307.10792079998646,307.2910898999544,307.2910898999544,307.49207299994305,space,1,0.19358800002373755,None,307.49564530001953,308.007272799965,309.00636709993705,308.9904052999336,,,,,,,,,,,,,,,,,011,001,2025-05-01_02h24.05.148,Cued GoNogo Task,2024.2.4,59.94186838000393,2025-05-01 02h24.13.127565 +0200,
block/CondBlock1.xlsx,You are about to start a block of type 1 trials.,87,87,0,Go,Go,0.41,0.2,0.05,space,green,vertical,space,10.101726999972016,None,space,1,0.1912797000259161,None,,,,0,0,0,0,0,87,87,87,309.00636709993705,,,,,,,,,,,,,,,,308.9907529000193,309.00636709993705,309.705913499929,309.705913499929,310.2053192999447,310.19020149996504,310.1908818000229,310.2053192999447,310.6219348999439,310.8048628999386,310.8048628999386,311.00574950000737,space,1,0.1912797000259161,None,311.0095844999887,311.5211554999696,312.52027550002094,312.50421059993096,,,,,,,,,,,,,,,,,011,001,2025-05-01_02h24.05.148,Cued GoNogo Task,2024.2.4,59.94186838000393,2025-05-01 02h24.13.127565 +0200,
block/CondBlock1.xlsx,You are about to start a block of type 1 trials.,88,88,0,NoGo,NoGo,0.15,0.2,0.05,none,green,vertical,space,10.101726999972016,None,None,1,,,,,,0,0,0,0,0,88,88,88,312.52027550002094,,,,,,,,,,,,,,,,312.50442230002955,312.52027550002094,313.2197629000293,313.2197629000293,313.71927399991546,313.70343559992034,313.70414089993574,313.71927399991546,313.8691276999889,314.0691205000039,314.0691205000039,314.5526918999385,None,1,,,314.55545989994425,315.0680902999593,316.06728920002934,316.0512037000153,314.5684390999377,314.5684390999377,,,,,,,,,,,,,,,011,001,2025-05-01_02h24.05.148,Cued GoNogo Task,2024.2.4,59.94186838000393,2025-05-01 02h24.13.127565 +0200,
block/CondBlock1.xlsx,You are about to start a block of type 1 trials.,89,89,0,Go,Go,0.24,0.05,0.2,space,blue,horizontal,space,10.101726999972016,None,space,1,0.19285399990621954,None,,,,0,0,0,0,0,89,89,89,316.06728920002934,,,,,,,,,,,,,,,,316.05156009993516,316.06728920002934,316.7667661999585,316.7667661999585,317.26633349992335,317.2506927999202,317.251274399925,317.26633349992335,317.51607549993787,317.6994491999503,317.6994491999503,317.90068780002184,space,1,0.19285399990621954,None,317.9055671999231,318.41550010000356,319.41459249996115,319.3987396999728,,,,,,,,,,,,,,,,,011,001,2025-05-01_02h24.05.148,Cued GoNogo Task,2024.2.4,59.94186838000393,2025-05-01 02h24.13.127565 +0200,
block/CondBlock1.xlsx,You are about to start a block of type 1 trials.,90,90,0,Go,Go,0.25,0.2,0.05,space,blue,vertical,space,10.101726999972016,None,space,1,0.16438189998734742,None,,,,0,0,0,0,0,90,90,90,319.41459249996115,,,,,,,,,,,,,,,,319.39905909996014,319.41459249996115,320.11392349994276,320.11392349994276,320.6135530999163,320.5976287999656,320.5983278999338,320.6135530999163,320.8634389999788,321.0632618999807,321.0632618999807,321.2309119999409,space,1,0.16438189998734742,None,321.2348343000049,321.7459646000061,322.745245099999,322.72926089994144,,,,,,,,,,,,,,,,,011,001,2025-05-01_02h24.05.148,Cued GoNogo Task,2024.2.4,59.94186838000393,2025-05-01 02h24.13.127565 +0200,
block/CondBlock1.xlsx,You are about to start a block of type 1 trials.,91,91,0,Go,Go,0.26,0.05,0.2,space,green,horizontal,space,10.101726999972016,None,space,1,0.1705697999568656,None,,,,0,0,0,0,0,91,91,91,322.745245099999,,,,,,,,,,,,,,,,322.72951189999003,322.745245099999,323.4447653000243,323.4447653000243,323.94443419994786,323.9281084999675,323.92887339997105,323.94443419994786,324.2105416000122,324.393709499971,324.393709499971,324.57814609992784,space,1,0.1705697999568656,None,324.58215299993753,325.0933929999592,326.0923517999472,326.0766101999907,,,,,,,,,,,,,,,,,011,001,2025-05-01_02h24.05.148,Cued GoNogo Task,2024.2.4,59.94186838000393,2025-05-01 02h24.13.127565 +0200,
block/CondBlock1.xlsx,You are about to start a block of type 1 trials.,92,92,0,NoGo,NoGo,0.44,0.2,0.05,none,blue,vertical,space,10.101726999972016,None,None,1,,,,,,0,0,0,0,0,92,92,92,326.0923517999472,,,,,,,,,,,,,,,,326.07691920001525,326.0923517999472,326.7918332000263,326.7918332000263,327.2914040000178,327.2754882000154,327.27611979993526,327.2914040000178,327.74110809993,327.92413870000746,327.92413870000746,328.4077078999253,None,1,,,328.4100837999722,328.90665090002585,329.9058679000009,329.88991519995034,328.4239537999965,328.4239537999965,,,,,,,,,,,,,,,011,001,2025-05-01_02h24.05.148,Cued GoNogo Task,2024.2.4,59.94186838000393,2025-05-01 02h24.13.127565 +0200,
block/CondBlock1.xlsx,You are about to start a block of type 1 trials.,93,93,0,Go,Go,0.13,0.2,0.05,space,green,vertical,space,10.101726999972016,None,space,1,0.24586429994087666,None,,,,0,0,0,0,0,93,93,93,329.9058679000009,,,,,,,,,,,,,,,,329.89017599995714,329.92255609994754,330.62183049996383,330.62183049996383,331.1217250999762,331.1051625999389,331.1056189999217,331.1217250999762,331.2547728000209,331.4382043000078,331.4382043000078,331.6887730000308,space,1,0.24586429994087666,None,331.69244799995795,332.20403609995265,333.2032644000137,333.1873904999811,,,,,,,,,,,,,,,,,011,001,2025-05-01_02h24.05.148,Cued GoNogo Task,2024.2.4,59.94186838000393,2025-05-01 02h24.13.127565 +0200,
block/CondBlock1.xlsx,You are about to start a block of type 1 trials.,94,94,0,Go,Go,0.44,0.05,0.2,space,blue,horizontal,space,10.101726999972016,None,space,1,0.20004959998186678,None,,,,0,0,0,0,0,94,94,94,333.2032644000137,,,,,,,,,,,,,,,,333.18767190002836,333.2032644000137,333.90269339992665,333.90269339992665,334.40218959993217,334.3862420999212,334.38686770002823,334.40218959993217,334.8518699000124,335.0350963999517,335.0350963999517,335.2374486000044,space,1,0.20004959998186678,None,335.24098529992625,335.7511048000306,336.7502481000265,336.7346090999199,,,,,,,,,,,,,,,,,011,001,2025-05-01_02h24.05.148,Cued GoNogo Task,2024.2.4,59.94186838000393,2025-05-01 02h24.13.127565 +0200,
block/CondBlock1.xlsx,You are about to start a block of type 1 trials.,95,95,0,Go,Go,0.15,0.2,0.05,space,green,vertical,space,10.101726999972016,None,space,1,0.12895889999344945,None,,,,0,0,0,0,0,95,95,95,336.7502481000265,,,,,,,,,,,,,,,,336.7348334999988,336.7502481000265,337.4497664999217,337.4497664999217,337.9493989999173,337.93345749995206,337.9341763999546,337.9493989999173,338.09919550002087,338.29918380000163,338.29918380000163,338.43348859995604,space,1,0.12895889999344945,None,338.43732179992367,338.9484838999342,339.9476380000124,339.9316495999228,,,,,,,,,,,,,,,,,011,001,2025-05-01_02h24.05.148,Cued GoNogo Task,2024.2.4,59.94186838000393,2025-05-01 02h24.13.127565 +0200,
block/CondBlock1.xlsx,You are about to start a block of type 1 trials.,96,96,0,Go,Go,0.49,0.2,0.05,space,green,vertical,space,10.101726999972016,None,space,1,0.15781669993884861,None,,,,0,0,0,0,0,96,96,96,339.9476380000124,,,,,,,,,,,,,,,,339.9318889999995,339.9476380000124,340.6470129999798,340.6470129999798,341.14663610002026,341.13114209997,341.13210919999983,341.14663610002026,341.6462507999968,341.8294503999641,341.8294503999641,341.99703800003044,space,1,0.15781669993884861,None,342.0001845000079,342.51231449993793,343.5113152000122,343.4954546999652,,,,,,,,,,,,,,,,,011,001,2025-05-01_02h24.05.148,Cued GoNogo Task,2024.2.4,59.94186838000393,2025-05-01 02h24.13.127565 +0200,
block/CondBlock1.xlsx,You are about to start a block of type 1 trials.,97,97,0,Go,Go,0.11,0.2,0.05,space,blue,vertical,space,10.101726999972016,None,space,1,0.2177275000140071,None,,,,0,0,0,0,0,97,97,97,343.5113152000122,,,,,,,,,,,,,,,,343.49571019993164,343.5113152000122,344.21102399996016,344.21102399996016,344.710341900005,344.69466089992784,344.6953678999562,344.710341900005,344.8268365999684,345.01023200002965,345.01023200002965,345.24436250003055,space,1,0.2177275000140071,None,345.2494429999497,345.7596600999823,346.7586908999365,346.74314849998336,,,,,,,,,,,,,,,,,011,001,2025-05-01_02h24.05.148,Cued GoNogo Task,2024.2.4,59.94186838000393,2025-05-01 02h24.13.127565 +0200,
block/CondBlock1.xlsx,You are about to start a block of type 1 trials.,98,98,0,Go,Go,0.26,0.05,0.2,space,green,horizontal,space,10.101726999972016,None,space,1,0.17976359999738634,None,,,,0,0,0,0,0,98,98,98,346.7586908999365,,,,,,,,,,,,,,,,346.74359229998663,346.7586908999365,347.45830589998513,347.45830589998513,347.9578234999208,347.9418882000027,347.9425896999892,347.9578234999208,348.2240939999465,348.4075591999572,348.4075591999572,348.5915806000121,space,1,0.17976359999738634,None,348.59503630001564,349.1068708000239,,350.1061660000123,,,,,,,,,,,,,,,,,011,001,2025-05-01_02h24.05.148,Cued GoNogo Task,2024.2.4,59.94186838000393,2025-05-01 02h24.13.127565 +0200,
block/CondBlock1.xlsx,You are about to start a block of type 1 trials.,99,99,0,Go,Go,0.28,0.05,0.2,space,green,horizontal,space,10.101726999972016,None,space,1,0.20830930001102388,None,,,,0,0,0,0,0,99,99,99,350.1225885999156,,,,,,,,,,,,,,,,350.10648259997834,350.1225885999156,350.80552950000856,350.8220955999568,351.30485790001694,351.2896574999904,351.2905952000292,351.30485790001694,351.5879669999704,351.7712274999358,351.7712274999358,351.9887926999945,space,1,0.20830930001102388,None,351.99296119995415,352.5038360999897,353.5036218999885,353.48731939995196,,,,,,,,,,,,,,,,,011,001,2025-05-01_02h24.05.148,Cued GoNogo Task,2024.2.4,59.94186838000393,2025-05-01 02h24.13.127565 +0200,
block/CondBlock1.xlsx,You are about to start a block of type 1 trials.,0,0,0,,,,,,,,,space,10.101726999972016,None,,,,,space,0.6524386999662966,None,0,0,0,0,,,,,,,,,,,,,,,,,,,,,,,,,,,,,,,,,,,,,,,,,,,353.5012508999789,353.5036218999885,353.5036218999885,354.17016290000174,space,0.6524386999662966,None,,,,,,,,011,001,2025-05-01_02h24.05.148,Cued GoNogo Task,2024.2.4,59.94186838000393,2025-05-01 02h24.13.127565 +0200,
block/CondBlock2.xlsx,You are about to start a block of type 2 trials.,0,0,0,Go,Go,0.18,0.05,0.2,space,green,horizontal,space,271.49009970005136,None,space,1,0.21525700006168336,None,,,,0,1,1,1,0,0,0,0,625.7175578000024,,,,,,,,,354.17384529998526,354.1860114999581,354.1860114999581,625.6813477999531,space,271.49009970005136,None,625.7143139999826,625.7175578000024,626.395563099999,626.4288700999459,626.8950998999644,626.8795255000005,626.8806514999596,626.8950998999644,627.0781699999934,627.2615266999928,627.2615266999928,627.4790922999382,space,1,0.21525700006168336,None,627.4832886999939,627.9943912000163,,628.9934136000229,,,,,,,,,,,,,,,,,011,001,2025-05-01_02h24.05.148,Cued GoNogo Task,2024.2.4,59.94186838000393,2025-05-01 02h24.13.127565 +0200,
block/CondBlock2.xlsx,You are about to start a block of type 2 trials.,1,1,0,Go,Go,0.2,0.2,0.05,space,green,vertical,space,271.49009970005136,None,space,1,0.15645840007346123,None,,,,0,1,1,1,0,1,1,1,629.0099501999794,,,,,,,,,,,,,,,,628.9937502000248,629.0099501999794,629.6927895999979,629.7094892000314,630.1921796000097,630.1764362999238,630.177061400027,630.1921796000097,630.3923181999708,630.5920858000172,630.5920858000172,630.7594171999954,space,1,0.15645840007346123,None,630.7630517999642,631.2747463999549,632.2738974000094,632.2580430000089,,,,,,,,,,,,,,,,,011,001,2025-05-01_02h24.05.148,Cued GoNogo Task,2024.2.4,59.94186838000393,2025-05-01 02h24.13.127565 +0200,
block/CondBlock2.xlsx,You are about to start a block of type 2 trials.,2,2,0,Go,Go,0.22,0.05,0.2,space,blue,horizontal,space,271.49009970005136,None,space,1,0.1549150999635458,None,,,,0,1,1,1,0,2,2,2,632.2738974000094,,,,,,,,,,,,,,,,632.2583312999923,632.2738974000094,632.9734035999281,632.9734035999281,633.4729490999598,633.4573046999285,633.4580735999625,633.4729490999598,633.706094800029,633.8892193000065,633.8892193000065,634.0567344999872,space,1,0.1549150999635458,None,634.0600985999918,634.5720194999594,635.571242999984,635.5556523000123,,,,,,,,,,,,,,,,,011,001,2025-05-01_02h24.05.148,Cued GoNogo Task,2024.2.4,59.94186838000393,2025-05-01 02h24.13.127565 +0200,
block/CondBlock2.xlsx,You are about to start a block of type 2 trials.,3,3,0,Go,Go,0.14,0.05,0.2,space,green,horizontal,space,271.49009970005136,None,space,1,0.17214259994216263,None,,,,0,1,1,1,0,3,3,3,635.571242999984,,,,,,,,,,,,,,,,635.5560697999317,635.571242999984,636.2703796999995,636.2703796999995,636.7702681999654,636.7544278999558,636.7554203999462,636.7702681999654,636.9200242999941,637.1032256999752,637.1032256999752,637.2874803999439,space,1,0.17214259994216263,None,637.2911594000179,637.8027715999633,638.8021511000115,638.7859663999407,,,,,,,,,,,,,,,,,011,001,2025-05-01_02h24.05.148,Cued GoNogo Task,2024.2.4,59.94186838000393,2025-05-01 02h24.13.127565 +0200,
block/CondBlock2.xlsx,You are about to start a block of type 2 trials.,4,4,0,Go,Go,0.26,0.05,0.2,space,blue,horizontal,space,271.49009970005136,None,space,1,0.025605299975723028,None,,,,0,1,1,1,0,4,4,4,638.8021511000115,,,,,,,,,,,,,,,,638.7862617999781,638.8021511000115,639.5013064999366,639.5013064999366,640.0009402999422,639.9849874000065,639.9856261999812,640.0009402999422,640.2673045999836,640.4505722000031,640.4505722000031,640.4853665999835,space,1,0.025605299975723028,None,640.4896181999939,641.0001863000216,641.999270399916,641.9835796999978,,,,,,,,,,,,,,,,,011,001,2025-05-01_02h24.05.148,Cued GoNogo Task,2024.2.4,59.94186838000393,2025-05-01 02h24.13.127565 +0200,
block/CondBlock2.xlsx,You are about to start a block of type 2 trials.,5,5,0,Go,Go,0.1,0.05,0.2,space,blue,horizontal,space,271.49009970005136,None,space,1,0.16870439995545894,None,,,,0,1,1,1,0,5,5,5,641.999270399916,,,,,,,,,,,,,,,,641.9839358999161,641.999270399916,642.6987149999477,642.6987149999477,643.1981193999527,643.1822754999157,643.1829757000087,643.1981193999527,643.2981938000303,643.498508199933,643.498508199933,643.6822752000298,space,1,0.16870439995545894,None,643.6862244999502,644.1974688000046,645.1964583999943,645.181089199963,,,,,,,,,,,,,,,,,011,001,2025-05-01_02h24.05.148,Cued GoNogo Task,2024.2.4,59.94186838000393,2025-05-01 02h24.13.127565 +0200,
block/CondBlock2.xlsx,You are about to start a block of type 2 trials.,6,6,0,NoGo,NoGo,0.3,0.2,0.05,none,green,vertical,space,271.49009970005136,None,None,1,,,,,,0,1,1,1,0,6,6,6,645.1964583999943,,,,,,,,,,,,,,,,645.1814321000129,645.1964583999943,645.8960209999932,645.8960209999932,646.3956410000101,646.3796985999215,646.3803443999495,646.3956410000101,646.6953988999594,646.8950525999535,646.8950525999535,647.378965199925,None,1,,,647.3822949000169,647.8946145999944,,648.8935973999323,647.3947863000212,647.3947863000212,,,,,,,,,,,,,,,011,001,2025-05-01_02h24.05.148,Cued GoNogo Task,2024.2.4,59.94186838000393,2025-05-01 02h24.13.127565 +0200,
block/CondBlock2.xlsx,You are about to start a block of type 2 trials.,7,7,0,NoGo,NoGo,0.14,0.05,0.2,none,blue,horizontal,space,271.49009970005136,None,None,1,,,,,,0,1,1,1,0,7,7,7,648.9101853999309,,,,,,,,,,,,,,,,648.8938592999475,648.9101853999309,649.5931000999408,649.6096900999546,650.0924366000108,650.0764072999591,650.0769074999262,650.0924366000108,650.2423892000224,650.4255233999575,650.4255233999575,650.9096608000109,None,1,,,650.9102860999992,651.4246857999824,652.4239314999431,652.4081149999984,650.9252413000213,650.9252413000213,,,,,,,,,,,,,,,011,001,2025-05-01_02h24.05.148,Cued GoNogo Task,2024.2.4,59.94186838000393,2025-05-01 02h24.13.127565 +0200,
block/CondBlock2.xlsx,You are about to start a block of type 2 trials.,8,8,0,Go,Go,0.13,0.2,0.05,space,blue,vertical,space,271.49009970005136,None,space,1,0.1769501999951899,None,,,,0,1,1,1,0,8,8,8,652.4239314999431,,,,,,,,,,,,,,,,652.4084211000009,652.4239314999431,653.123293899931,653.123293899931,653.6230992999626,653.6071529999608,653.6078886999749,653.6230992999626,653.7561432999792,653.9394702999853,653.9394702999853,654.1239571999758,space,1,0.1769501999951899,None,654.1277608999517,654.6388253999176,655.6379080999177,655.6225413000211,,,,,,,,,,,,,,,,,011,001,2025-05-01_02h24.05.148,Cued GoNogo Task,2024.2.4,59.94186838000393,2025-05-01 02h24.13.127565 +0200,
block/CondBlock2.xlsx,You are about to start a block of type 2 trials.,9,9,0,Go,Go,0.43,0.2,0.05,space,green,vertical,space,271.49009970005136,None,space,1,0.2384835999691859,None,,,,0,1,1,1,0,9,9,9,655.6379080999177,,,,,,,,,,,,,,,,655.6228479000274,655.6379080999177,656.3374685000163,656.3374685000163,656.8370306999423,656.8209430000279,656.8214722999837,656.8370306999423,657.2701498999959,657.4533208999783,657.4533208999783,657.7044455999276,space,1,0.2384835999691859,None,657.7092619999312,658.2192018999485,659.2183498999802,659.20301930001,,,,,,,,,,,,,,,,,011,001,2025-05-01_02h24.05.148,Cued GoNogo Task,2024.2.4,59.94186838000393,2025-05-01 02h24.13.127565 +0200,
block/CondBlock2.xlsx,You are about to start a block of type 2 trials.,10,10,0,Go,Go,0.14,0.2,0.05,space,green,vertical,space,271.49009970005136,None,space,1,0.12556559999939054,None,,,,0,1,1,1,0,10,10,10,659.2183498999802,,,,,,,,,,,,,,,,659.2035052999854,659.2183498999802,659.9179102999624,659.9179102999624,660.4175691999262,660.4017651999602,660.4025616999716,660.4175691999262,660.5671924999915,660.7505940999836,660.7505940999836,660.8850682999473,space,1,0.12556559999939054,None,660.8894605999812,661.4000871999888,662.3992057000287,662.3835381999379,,,,,,,,,,,,,,,,,011,001,2025-05-01_02h24.05.148,Cued GoNogo Task,2024.2.4,59.94186838000393,2025-05-01 02h24.13.127565 +0200,
block/CondBlock2.xlsx,You are about to start a block of type 2 trials.,11,11,0,Go,Go,0.27,0.2,0.05,space,green,vertical,space,271.49009970005136,None,space,1,0.13214000000152737,None,,,,0,1,1,1,0,11,11,11,662.3992057000287,,,,,,,,,,,,,,,,662.3839235999621,662.3992057000287,663.0984711999772,663.0984711999772,663.5982898999937,663.5823758000042,663.5830657000188,663.5982898999937,663.8813700999599,664.0644086999819,664.0644086999819,664.1992135000182,space,1,0.13214000000152737,None,664.2034471000079,664.71390959993,665.7130463999929,665.69718249992,,,,,,,,,,,,,,,,,011,001,2025-05-01_02h24.05.148,Cued GoNogo Task,2024.2.4,59.94186838000393,2025-05-01 02h24.13.127565 +0200,
block/CondBlock2.xlsx,You are about to start a block of type 2 trials.,12,12,0,Go,Go,0.3,0.05,0.2,space,green,horizontal,space,271.49009970005136,None,space,1,0.20063129998743534,None,,,,0,1,1,1,0,12,12,12,665.7130463999929,,,,,,,,,,,,,,,,665.6974610999459,665.7130463999929,666.4126189999515,666.4126189999515,666.9120368999429,666.8959920000052,666.8966029000003,666.9120368999429,667.2118787999498,667.4117121000309,667.4117121000309,667.6295917999232,space,1,0.20063129998743534,None,667.6342211000156,668.144415399991,669.1434685999993,669.1277940999717,,,,,,,,,,,,,,,,,011,001,2025-05-01_02h24.05.148,Cued GoNogo Task,2024.2.4,59.94186838000393,2025-05-01 02h24.13.127565 +0200,
block/CondBlock2.xlsx,You are about to start a block of type 2 trials.,13,13,0,Go,Go,0.18,0.2,0.05,space,blue,vertical,space,271.49009970005136,None,space,1,0.15899000002536923,None,,,,0,1,1,1,0,13,13,13,669.1434685999993,,,,,,,,,,,,,,,,669.1281080999179,669.1434685999993,669.8429384999909,669.8429384999909,670.3426309999777,670.326862399932,670.3276396000292,670.3426309999777,670.5258173999609,670.7089650999987,670.7089650999987,670.8769119000062,space,1,0.15899000002536923,None,670.8811265999684,671.3917006999254,672.3909677999327,672.3750228999415,,,,,,,,,,,,,,,,,011,001,2025-05-01_02h24.05.148,Cued GoNogo Task,2024.2.4,59.94186838000393,2025-05-01 02h24.13.127565 +0200,
block/CondBlock2.xlsx,You are about to start a block of type 2 trials.,14,14,0,Go,Go,0.13,0.2,0.05,space,green,vertical,space,271.49009970005136,None,space,1,0.15357439999934286,None,,,,0,1,1,1,0,14,14,14,672.3909677999327,,,,,,,,,,,,,,,,672.3754563999828,672.3909677999327,673.0902562999399,673.0902562999399,673.5899460000219,673.5742139000213,673.5747958000284,673.5899460000219,673.7232974999351,673.9063201999525,673.9063201999525,674.0738927000202,space,1,0.15357439999934286,None,674.0777342999354,674.5891204000218,675.5882736999774,675.5724970999872,,,,,,,,,,,,,,,,,011,001,2025-05-01_02h24.05.148,Cued GoNogo Task,2024.2.4,59.94186838000393,2025-05-01 02h24.13.127565 +0200,
block/CondBlock2.xlsx,You are about to start a block of type 2 trials.,15,15,0,Go,Go,0.18,0.2,0.05,space,blue,vertical,space,271.49009970005136,None,space,1,0.2265610999893397,None,,,,0,1,1,1,0,15,15,15,675.5882736999774,,,,,,,,,,,,,,,,675.5728025999852,675.5882736999774,676.2874643999385,676.2874643999385,676.7872032999294,676.7715831999667,676.7725535000209,676.7872032999294,676.9703111000126,677.1535559999757,677.1535559999757,677.3879043000052,space,1,0.2265610999893397,None,677.3917800999479,677.9029639000073,678.9023019999731,678.8865702999756,,,,,,,,,,,,,,,,,011,001,2025-05-01_02h24.05.148,Cued GoNogo Task,2024.2.4,59.94186838000393,2025-05-01 02h24.13.127565 +0200,
block/CondBlock2.xlsx,You are about to start a block of type 2 trials.,16,16,0,Go,Go,0.24,0.2,0.05,space,green,vertical,space,271.49009970005136,None,space,1,0.1826839999994263,None,,,,0,1,1,1,0,16,16,16,678.9023019999731,,,,,,,,,,,,,,,,678.8869304999243,678.9023019999731,679.6016513999784,679.6016513999784,680.1011796999956,680.0851878999965,680.0858381999424,680.1011796999956,680.3508882999886,680.5341149999294,680.5341149999294,680.7195660999278,space,1,0.1826839999994263,None,680.7242692,681.233656700002,682.2329332999652,682.2171800999204,,,,,,,,,,,,,,,,,011,001,2025-05-01_02h24.05.148,Cued GoNogo Task,2024.2.4,59.94186838000393,2025-05-01 02h24.13.127565 +0200,
block/CondBlock2.xlsx,You are about to start a block of type 2 trials.,17,17,0,Go,Go,0.26,0.2,0.05,space,blue,vertical,space,271.49009970005136,None,space,1,0.1863572000293061,None,,,,0,1,1,1,0,17,17,17,682.2329332999652,,,,,,,,,,,,,,,,682.2175196999451,682.2329332999652,682.9320944999345,682.9320944999345,683.4318189999321,683.4164256999502,683.4174253999954,683.4318189999321,683.6981969999615,683.8815751000075,683.8815751000075,684.0826633999823,space,1,0.1863572000293061,None,684.0872341999784,684.5975554999895,685.596612000023,685.5809483999619,,,,,,,,,,,,,,,,,011,001,2025-05-01_02h24.05.148,Cued GoNogo Task,2024.2.4,59.94186838000393,2025-05-01 02h24.13.127565 +0200,
block/CondBlock2.xlsx,You are about to start a block of type 2 trials.,18,18,0,Go,Go,0.1,0.05,0.2,space,blue,horizontal,space,271.49009970005136,None,space,1,0.20398400002159178,None,,,,0,1,1,1,0,18,18,18,685.596612000023,,,,,,,,,,,,,,,,685.5813093999168,685.596612000023,686.2961408999981,686.2961408999981,686.7956701000221,686.7799598999554,686.78068169998,686.7956701000221,686.8956040999619,687.0953894000268,687.0953894000268,687.3134398999391,space,1,0.20398400002159178,None,687.3181323999306,687.8282349000219,688.8274763999507,688.8116288000019,,,,,,,,,,,,,,,,,011,001,2025-05-01_02h24.05.148,Cued GoNogo Task,2024.2.4,59.94186838000393,2025-05-01 02h24.13.127565 +0200,
block/CondBlock2.xlsx,You are about to start a block of type 2 trials.,19,19,0,Go,Go,0.46,0.2,0.05,space,blue,vertical,space,271.49009970005136,None,space,1,0.19247949996497482,None,,,,0,1,1,1,0,19,19,19,688.8274763999507,,,,,,,,,,,,,,,,688.8119536000304,688.8274763999507,689.5267305999296,689.5267305999296,690.0262928999728,690.0103323999792,690.0109830999281,690.0262928999728,690.4926423999714,690.6759091999847,690.6759091999847,690.8771230999846,space,1,0.19247949996497482,None,690.8817973999539,691.391897500027,692.3911660999293,692.3755168999778,,,,,,,,,,,,,,,,,011,001,2025-05-01_02h24.05.148,Cued GoNogo Task,2024.2.4,59.94186838000393,2025-05-01 02h24.13.127565 +0200,
block/CondBlock2.xlsx,You are about to start a block of type 2 trials.,20,20,0,Go,Go,0.3,0.05,0.2,space,blue,horizontal,space,271.49009970005136,None,space,1,0.16298609995283186,None,,,,0,1,1,1,0,20,20,20,692.3911660999293,,,,,,,,,,,,,,,,692.3757996999193,692.3911660999293,693.0908001000062,693.0908001000062,693.5903419000097,693.5742300000275,693.5749265999766,693.5903419000097,693.8898507999256,694.0896769999526,694.0896769999526,694.2575719000306,space,1,0.16298609995283186,None,694.2617803999456,694.7723673,695.7718057999155,695.7561142999912,,,,,,,,,,,,,,,,,011,001,2025-05-01_02h24.05.148,Cued GoNogo Task,2024.2.4,59.94186838000393,2025-05-01 02h24.13.127565 +0200,
block/CondBlock2.xlsx,You are about to start a block of type 2 trials.,21,21,0,Go,Go,0.23,0.05,0.2,space,green,horizontal,space,271.49009970005136,None,space,1,0.12133280001580715,None,,,,0,1,1,1,0,21,21,21,695.7718057999155,,,,,,,,,,,,,,,,695.75645789993,695.7718057999155,696.4709796999814,696.4709796999814,696.9705431999173,696.954690799932,696.9553312999196,696.9705431999173,697.2038116999902,697.3869935999392,697.3869935999392,697.5218012999976,space,1,0.12133280001580715,None,697.52633100003,698.0363806999521,699.0356394000119,699.0196072999388,,,,,,,,,,,,,,,,,011,001,2025-05-01_02h24.05.148,Cued GoNogo Task,2024.2.4,59.94186838000393,2025-05-01 02h24.13.127565 +0200,
block/CondBlock2.xlsx,You are about to start a block of type 2 trials.,22,22,0,Go,Go,0.19,0.2,0.05,space,green,vertical,space,271.49009970005136,None,space,1,0.13062170008197427,None,,,,0,1,1,1,0,22,22,22,699.0356394000119,,,,,,,,,,,,,,,,699.0198540999554,699.0356394000119,699.735108199995,699.735108199995,700.2346352000022,700.2185341999866,700.2191963000223,700.2346352000022,700.4347037000116,700.6178156000096,700.6178156000096,700.7520072999178,space,1,0.13062170008197427,None,700.7559419999598,701.2672283999855,702.2665130000096,702.2505756999599,,,,,,,,,,,,,,,,,011,001,2025-05-01_02h24.05.148,Cued GoNogo Task,2024.2.4,59.94186838000393,2025-05-01 02h24.13.127565 +0200,
block/CondBlock2.xlsx,You are about to start a block of type 2 trials.,23,23,0,NoGo,NoGo,0.41,0.2,0.05,none,blue,vertical,space,271.49009970005136,None,space,0,0.11622850003186613,None,,,,0,1,1,1,0,23,23,23,702.2665130000096,,,,,,,,,,,,,,,,702.2508472999325,702.2665130000096,702.9658653999213,702.9658653999213,703.4654796000104,703.4491394999204,703.4496662999736,703.4654796000104,703.8817009999184,704.0648904999252,704.0648904999252,704.1835563000059,space,0,0.11622850003186613,None,704.188512200024,704.6977953999303,705.6967489999952,705.6812833999284,,,,,,,,,,,,,,,,,011,001,2025-05-01_02h24.05.148,Cued GoNogo Task,2024.2.4,59.94186838000393,2025-05-01 02h24.13.127565 +0200,
block/CondBlock2.xlsx,You are about to start a block of type 2 trials.,24,24,0,Go,Go,0.17,0.2,0.05,space,blue,vertical,space,271.49009970005136,None,space,1,0.11881629994604737,None,,,,0,1,1,1,0,24,24,24,705.6967489999952,,,,,,,,,,,,,,,,705.6815953999758,705.6967489999952,706.3962838000152,706.3962838000152,706.8960021999665,706.8801007999573,706.8808496999554,706.8960021999665,707.0789473999757,707.2622562999604,707.2622562999604,707.396412299946,space,1,0.11881629994604737,None,707.4002183999401,707.9117548000067,,708.91110259993,,,,,,,,,,,,,,,,,011,001,2025-05-01_02h24.05.148,Cued GoNogo Task,2024.2.4,59.94186838000393,2025-05-01 02h24.13.127565 +0200,
block/CondBlock2.xlsx,You are about to start a block of type 2 trials.,25,25,0,Go,Go,0.27,0.05,0.2,space,blue,horizontal,space,271.49009970005136,None,space,1,0.18079750007018447,None,,,,0,1,1,1,0,25,25,25,708.9274591000285,,,,,,,,,,,,,,,,708.9113024999388,708.9274591000285,709.6101694999961,709.6269510999555,710.1098485999973,710.0940775999334,710.0948968000012,710.1098485999973,710.3929411999416,710.5762001000112,710.5762001000112,710.761075999937,space,1,0.18079750007018447,None,710.7653111999389,711.2755169000011,712.2747149999486,712.2588340999791,,,,,,,,,,,,,,,,,011,001,2025-05-01_02h24.05.148,Cued GoNogo Task,2024.2.4,59.94186838000393,2025-05-01 02h24.13.127565 +0200,
block/CondBlock2.xlsx,You are about to start a block of type 2 trials.,26,26,0,Go,Go,0.26,0.05,0.2,space,green,horizontal,space,271.49009970005136,None,space,1,0.16771279997192323,None,,,,0,1,1,1,0,26,26,26,712.2747149999486,,,,,,,,,,,,,,,,712.2591472999193,712.2747149999486,712.9740849999944,712.9740849999944,713.473798400024,713.4579537999816,713.4587106999243,713.473798400024,713.7403697000118,713.9234804000007,713.9234804000007,714.1075514999684,space,1,0.16771279997192323,None,714.1111545999302,714.6227047999855,715.6218924999703,715.6061114999466,,,,,,,,,,,,,,,,,011,001,2025-05-01_02h24.05.148,Cued GoNogo Task,2024.2.4,59.94186838000393,2025-05-01 02h24.13.127565 +0200,
block/CondBlock2.xlsx,You are about to start a block of type 2 trials.,27,27,0,Go,Go,0.22,0.2,0.05,space,green,vertical,space,271.49009970005136,None,space,1,0.3115331999724731,None,,,,0,1,1,1,0,27,27,27,715.6218924999703,,,,,,,,,,,,,,,,715.6063936999999,715.6218924999703,716.321339200018,716.321339200018,716.8210016000085,716.8050073999912,716.8056951999897,716.8210016000085,717.0541356999893,717.2371705999831,717.2371705999831,717.5551858999534,space,1,0.3115331999724731,None,717.5593834000174,718.0700105000287,719.0692719999934,719.0540301000001,,,,,,,,,,,,,,,,,011,001,2025-05-01_02h24.05.148,Cued GoNogo Task,2024.2.4,59.94186838000393,2025-05-01 02h24.13.127565 +0200,
block/CondBlock2.xlsx,You are about to start a block of type 2 trials.,28,28,0,Go,Go,0.19,0.05,0.2,space,blue,horizontal,space,271.49009970005136,None,space,1,0.16871840006206185,None,,,,0,1,1,1,0,28,28,28,719.0692719999934,,,,,,,,,,,,,,,,719.054456599988,719.0692719999934,719.7684361999854,719.7684361999854,720.2681440999731,720.2523146999301,720.2529503999976,720.2681440999731,720.4678913999815,720.6511212999467,720.6511212999467,720.8354846999282,space,1,0.16871840006206185,None,720.8390270000091,721.3507772999583,722.3498122999445,722.3339298999636,,,,,,,,,,,,,,,,,011,001,2025-05-01_02h24.05.148,Cued GoNogo Task,2024.2.4,59.94186838000393,2025-05-01 02h24.13.127565 +0200,
block/CondBlock2.xlsx,You are about to start a block of type 2 trials.,29,29,0,Go,Go,0.18,0.05,0.2,space,blue,horizontal,space,271.49009970005136,None,space,1,0.23308289994020015,None,,,,0,1,1,1,0,29,29,29,722.3498122999445,,,,,,,,,,,,,,,,722.3342034999514,722.3498122999445,723.0491533000022,723.0491533000022,723.5488049000269,723.5328639999498,723.53347819997,723.5488049000269,723.7322672000155,723.9152474999428,723.9152474999428,724.1509185999166,space,1,0.23308289994020015,None,724.1544785000151,724.6647291999543,725.6636785999872,725.648500500014,,,,,,,,,,,,,,,,,011,001,2025-05-01_02h24.05.148,Cued GoNogo Task,2024.2.4,59.94186838000393,2025-05-01 02h24.13.127565 +0200,
block/CondBlock2.xlsx,You are about to start a block of type 2 trials.,30,30,0,NoGo,NoGo,0.23,0.2,0.05,none,blue,vertical,space,271.49009970005136,None,None,1,,,,,,0,1,1,1,0,30,30,30,725.6636785999872,,,,,,,,,,,,,,,,725.6488247999223,725.6636785999872,726.3631513,726.3631513,726.862765399972,726.8465714999475,726.8470407000277,726.862765399972,727.0958394999616,727.2956755999476,727.2956755999476,727.7791235999903,None,1,,,727.7810450999532,728.2783915000036,729.2774614000227,729.2616533000255,727.7952951999614,727.7952951999614,,,,,,,,,,,,,,,011,001,2025-05-01_02h24.05.148,Cued GoNogo Task,2024.2.4,59.94186838000393,2025-05-01 02h24.13.127565 +0200,
block/CondBlock2.xlsx,You are about to start a block of type 2 trials.,31,31,0,Go,Go,0.43,0.2,0.05,space,green,vertical,space,271.49009970005136,None,space,1,0.11150690005160868,None,,,,0,1,1,1,0,31,31,31,729.2774614000227,,,,,,,,,,,,,,,,729.2619273000164,729.2939454999287,729.993622399983,729.993622399983,730.4931430999422,730.4777677999809,730.478815899929,730.4931430999422,730.9260773999849,731.1090800999664,731.1090800999664,731.227107499959,space,1,0.11150690005160868,None,731.2311592999613,731.7421750000212,732.7411590999691,732.7255369999912,,,,,,,,,,,,,,,,,011,001,2025-05-01_02h24.05.148,Cued GoNogo Task,2024.2.4,59.94186838000393,2025-05-01 02h24.13.127565 +0200,
block/CondBlock2.xlsx,You are about to start a block of type 2 trials.,32,32,0,Go,Go,0.13,0.05,0.2,space,blue,horizontal,space,271.49009970005136,None,space,1,0.1880756999598816,None,,,,0,1,1,1,0,32,32,32,732.7411590999691,,,,,,,,,,,,,,,,732.7258236999623,732.7411590999691,733.4407127000159,733.4407127000159,733.9404414999299,733.9242072999477,733.9246098999865,733.9404414999299,734.0735497999704,734.2566652999958,734.2566652999958,734.4578642999986,space,1,0.1880756999598816,None,734.4619565999601,734.972905099974,,735.9719439999899,,,,,,,,,,,,,,,,,011,001,2025-05-01_02h24.05.148,Cued GoNogo Task,2024.2.4,59.94186838000393,2025-05-01 02h24.13.127565 +0200,
block/CondBlock2.xlsx,You are about to start a block of type 2 trials.,33,33,0,Go,Go,0.45,0.05,0.2,space,green,horizontal,space,271.49009970005136,None,space,1,0.09518830000888556,None,,,,0,1,1,1,0,33,33,33,735.9886003999272,,,,,,,,,,,,,,,,735.972127999994,735.9886003999272,736.6713815999683,736.6880822000094,737.1711084999843,737.1548779000295,737.1554792999523,737.1711084999843,737.6205012999708,737.8205054999562,737.8205054999562,737.9214038000209,space,1,0.09518830000888556,None,737.9245562999276,738.43675480003,739.4358357000165,739.4199056000216,,,,,,,,,,,,,,,,,011,001,2025-05-01_02h24.05.148,Cued GoNogo Task,2024.2.4,59.94186838000393,2025-05-01 02h24.13.127565 +0200,
block/CondBlock2.xlsx,You are about to start a block of type 2 trials.,34,34,0,Go,Go,0.14,0.2,0.05,space,blue,vertical,space,271.49009970005136,None,space,1,0.1250921000028029,None,,,,0,1,1,1,0,34,34,34,739.4358357000165,,,,,,,,,,,,,,,,739.4201962000225,739.4358357000165,740.1352168000303,740.1352168000303,740.6346769999946,740.6190264999168,740.6201970999828,740.6346769999946,740.7847931999713,740.9679246000014,740.9679246000014,741.1023527999641,space,1,0.1250921000028029,None,741.1063480000012,741.6172861999366,742.6164012999507,742.6006116999779,,,,,,,,,,,,,,,,,011,001,2025-05-01_02h24.05.148,Cued GoNogo Task,2024.2.4,59.94186838000393,2025-05-01 02h24.13.127565 +0200,
block/CondBlock2.xlsx,You are about to start a block of type 2 trials.,35,35,0,Go,Go,0.11,0.2,0.05,space,blue,vertical,space,271.49009970005136,None,space,1,0.1526902000186965,None,,,,0,1,1,1,0,35,35,35,742.6164012999507,,,,,,,,,,,,,,,,742.6008359999396,742.6164012999507,743.3159662999678,743.3159662999678,743.8153994999593,743.7996937999269,743.8004375000019,743.8153994999593,743.9318950999295,744.1153202999849,744.1153202999849,744.2829627000028,space,1,0.1526902000186965,None,744.2863420000067,744.798076899955,745.797494999948,745.7812446999596,,,,,,,,,,,,,,,,,011,001,2025-05-01_02h24.05.148,Cued GoNogo Task,2024.2.4,59.94186838000393,2025-05-01 02h24.13.127565 +0200,
block/CondBlock2.xlsx,You are about to start a block of type 2 trials.,36,36,0,Go,Go,0.15,0.05,0.2,space,green,horizontal,space,271.49009970005136,None,space,1,0.12196180003229529,None,,,,0,1,1,1,0,36,36,36,745.797494999948,,,,,,,,,,,,,,,,745.7814588999609,745.797494999948,746.4965393999591,746.4965393999591,746.9962361999787,746.9804369999329,746.9811618999811,746.9962361999787,747.1460445999401,747.3460935999174,747.3460935999174,747.4808175999206,space,1,0.12196180003229529,None,747.4841760999989,747.9952982999384,748.9945598000195,748.9790066999849,,,,,,,,,,,,,,,,,011,001,2025-05-01_02h24.05.148,Cued GoNogo Task,2024.2.4,59.94186838000393,2025-05-01 02h24.13.127565 +0200,
block/CondBlock2.xlsx,You are about to start a block of type 2 trials.,37,37,0,Go,Go,0.15,0.2,0.05,space,green,vertical,space,271.49009970005136,None,space,1,0.11707089992705733,None,,,,0,1,1,1,0,37,37,37,748.9945598000195,,,,,,,,,,,,,,,,748.979290899937,748.9945598000195,749.693974899943,749.693974899943,750.1935407000128,750.1778846000088,750.1787007999374,750.1935407000128,750.3434802999254,750.5433609000174,750.5433609000174,750.6782430999447,space,1,0.11707089992705733,None,750.6836616999935,751.1929316000314,752.1919030999998,752.1764085999457,,,,,,,,,,,,,,,,,011,001,2025-05-01_02h24.05.148,Cued GoNogo Task,2024.2.4,59.94186838000393,2025-05-01 02h24.13.127565 +0200,
block/CondBlock2.xlsx,You are about to start a block of type 2 trials.,38,38,0,NoGo,NoGo,0.14,0.2,0.05,none,green,vertical,space,271.49009970005136,None,None,1,,,,,,0,1,1,1,0,38,38,38,752.1919030999998,,,,,,,,,,,,,,,,752.1767767999554,752.1919030999998,752.8912316999631,752.8912316999631,753.3907807000214,753.3750842999434,753.3757477999898,753.3907807000214,753.5408596999478,753.7241595999803,753.7241595999803,754.2074923999608,None,1,,,754.209794000024,754.7232398999622,,755.722544600023,754.2236687999684,754.2236687999684,,,,,,,,,,,,,,,011,001,2025-05-01_02h24.05.148,Cued GoNogo Task,2024.2.4,59.94186838000393,2025-05-01 02h24.13.127565 +0200,
block/CondBlock2.xlsx,You are about to start a block of type 2 trials.,39,39,0,Go,Go,0.46,0.2,0.05,space,green,vertical,space,271.49009970005136,None,space,1,0.09641849994659424,None,,,,0,1,1,1,0,39,39,39,755.7397001999198,,,,,,,,,,,,,,,,755.7228191000177,755.7397001999198,756.4218654999277,756.4550828000065,756.9212990999222,756.9052215999691,756.9056030999636,756.9212990999222,757.3876643999247,757.5709600999253,757.5709600999253,757.6718249999685,space,1,0.09641849994659424,None,757.6752521999879,758.1870169999311,759.1860554999439,759.1705226999475,,,,,,,,,,,,,,,,,011,001,2025-05-01_02h24.05.148,Cued GoNogo Task,2024.2.4,59.94186838000393,2025-05-01 02h24.13.127565 +0200,
block/CondBlock2.xlsx,You are about to start a block of type 2 trials.,40,40,0,Go,Go,0.5,0.05,0.2,space,blue,horizontal,space,271.49009970005136,None,space,1,0.038747399928979576,None,,,,0,1,1,1,0,40,40,40,759.1860554999439,,,,,,,,,,,,,,,,759.1707862999756,759.1860554999439,759.8858540999936,759.8858540999936,760.3852214999497,760.3692042999901,760.3698495000135,760.3852214999497,760.8848258999642,761.0852922999766,761.0852922999766,761.1358866000082,space,1,0.038747399928979576,None,761.1405736999586,761.6508515999885,762.6499522000086,762.6341492999345,,,,,,,,,,,,,,,,,011,001,2025-05-01_02h24.05.148,Cued GoNogo Task,2024.2.4,59.94186838000393,2025-05-01 02h24.13.127565 +0200,
block/CondBlock2.xlsx,You are about to start a block of type 2 trials.,41,41,0,Go,Go,0.16,0.05,0.2,space,green,horizontal,space,271.49009970005136,None,space,1,0.1411390999564901,None,,,,0,1,1,1,0,41,41,41,762.6499522000086,,,,,,,,,,,,,,,,762.6344554999378,762.6499522000086,763.3493532999419,763.3493532999419,763.8489485000027,763.8331351999659,763.8338283000048,763.8489485000027,764.0155181000009,764.1986865999643,764.1986865999643,764.349643799942,space,1,0.1411390999564901,None,764.3531935999636,764.864720899961,765.864189999993,765.8486674999585,,,,,,,,,,,,,,,,,011,001,2025-05-01_02h24.05.148,Cued GoNogo Task,2024.2.4,59.94186838000393,2025-05-01 02h24.13.127565 +0200,
