Block,blockMsg,thisN,thisTrialN,thisRepN,CueType,StimType,CueTime,Stim_Height,Stim_Width,CRESP,Color,Orientation,key_resp_2.keys,key_resp_2.rt,key_resp_2.duration,Key_Resp.keys,Key_Resp.corr,Key_Resp.rt,Key_Resp.duration,key_resp_3.keys,key_resp_3.rt,key_resp_3.duration,Blocks.thisRepN,Blocks.thisTrialN,Blocks.thisN,Blocks.thisIndex,Trials.thisRepN,Trials.thisTrialN,Trials.thisN,Trials.thisIndex,thisRow.t,notes,TaskIntro.started,fixation.started,key_resp.started,TaskIntro.stopped,key_resp.keys,key_resp.rt,key_resp.duration,BlockStart.started,BlockStart_Msg.started,key_resp_2.started,BlockStart.stopped,Blocks.key_resp_2.keys,Blocks.key_resp_2.rt,Blocks.key_resp_2.duration,Fixation.started,FixationPhase.started,Blank.started,FixationPhase.stopped,Blank.stopped,Fixation.stopped,Trial.started,Cue.started,Cue.stopped,GoNogo_Stim.started,Key_Resp.started,Trial.stopped,Trials.Key_Resp.keys,Trials.Key_Resp.corr,Trials.Key_Resp.rt,Trials.Key_Resp.duration,Feedback.started,Feedback_Present.started,Feedback_Present.stopped,Feedback.stopped,GoNogo_Stim.stopped,Key_Resp.stopped,BlockEnd.started,BlockEnd_Msg.started,key_resp_3.started,BlockEnd.stopped,Blocks.key_resp_3.keys,Blocks.key_resp_3.rt,Blocks.key_resp_3.duration,TaskEnd.started,ThankYou.started,key_resp_4.started,TaskEnd.stopped,key_resp_4.keys,key_resp_4.rt,key_resp_4.duration,participant,session,date,expName,psychopyVersion,frameRate,expStart,
,,,,,,,,,,,,,,,,,,,,,,,,,,,,,,,,,0.031201599980704486,0.07845550001366064,0.07845550001366064,8.104371399967931,space,8.02016429998912,None,,,,,,,,,,,,,,,,,,,,,,,,,,,,,,,,,,,,,,,,,,,,005,001,2025-04-27_19h59.44.535,Cued GoNogo Task,2024.2.4,59.98764254232577,2025-04-27 19h59.54.864020 +0200,
block/CondBlock1.xlsx,You are about to start a block of type 1 trials.,0,0,0,Go,Go,0.13,0.05,0.2,space,blue,horizontal,space,2.726087200047914,None,space,1,0.34350120002636686,None,,,,0,0,0,0,0,0,0,0,10.907177500019316,,,,,,,,,8.113811900024302,8.116836500004865,8.116836500004865,10.848949800012633,space,2.726087200047914,None,10.904018700006418,10.907177500019316,11.564111399988178,11.613959699985571,12.063696299970616,12.047781299974304,12.048494799993932,12.063696299970616,12.196953399979975,12.380264099978376,12.380264099978376,12.730892499967013,space,1,0.34350120002636686,None,12.74169830000028,13.245981800020672,14.24520309997024,14.22942809999222,,,,,,,,,,,,,,,,,005,001,2025-04-27_19h59.44.535,Cued GoNogo Task,2024.2.4,59.98764254232577,2025-04-27 19h59.54.864020 +0200,
block/CondBlock1.xlsx,You are about to start a block of type 1 trials.,1,1,0,NoGo,NoGo,0.43,0.05,0.2,none,blue,horizontal,space,2.726087200047914,None,None,1,,,,,,0,0,0,0,0,1,1,1,14.24520309997024,,,,,,,,,,,,,,,,14.229791799967643,14.24520309997024,14.944550000014715,14.944550000014715,15.444285799982026,15.428208599973004,15.428819599968847,15.444285799982026,15.877127700019628,16.060438700020313,16.060438700020313,16.544106399989687,None,1,,,16.54699519998394,17.059708299988415,18.058694800012745,18.042739299999084,16.55989520001458,16.55989520001458,,,,,,,,,,,,,,,005,001,2025-04-27_19h59.44.535,Cued GoNogo Task,2024.2.4,59.98764254232577,2025-04-27 19h59.54.864020 +0200,
block/CondBlock1.xlsx,You are about to start a block of type 1 trials.,2,2,0,Go,Go,0.12,0.2,0.05,space,blue,vertical,space,2.726087200047914,None,space,1,0.34054209996247664,None,,,,0,0,0,0,0,2,2,2,18.058694800012745,,,,,,,,,,,,,,,,18.042979100020602,18.058694800012745,18.75825289997738,18.75825289997738,19.25775440002326,19.24206060002325,19.242973699991126,19.25775440002326,19.390983999997843,19.574087999993935,19.574087999993935,19.925153199990746,space,1,0.34054209996247664,None,19.93027389998315,20.44013730000006,21.439358000003267,21.423381400003564,,,,,,,,,,,,,,,,,005,001,2025-04-27_19h59.44.535,Cued GoNogo Task,2024.2.4,59.98764254232577,2025-04-27 19h59.54.864020 +0200,
block/CondBlock1.xlsx,You are about to start a block of type 1 trials.,3,3,0,NoGo,NoGo,0.18,0.2,0.05,none,green,vertical,space,2.726087200047914,None,None,1,,,,,,0,0,0,0,0,3,3,3,21.439358000003267,,,,,,,,,,,,,,,,21.42377920000581,21.439358000003267,22.138767700002063,22.138767700002063,22.638344599981792,22.62238149996847,22.623265000001993,22.638344599981792,22.82198900001822,23.004701900004875,23.004701900004875,23.48819389997516,None,1,,,23.49073129997123,23.987074700009543,24.986278600001242,24.97042309999233,23.50429880002048,23.50429880002048,,,,,,,,,,,,,,,005,001,2025-04-27_19h59.44.535,Cued GoNogo Task,2024.2.4,59.98764254232577,2025-04-27 19h59.54.864020 +0200,
block/CondBlock1.xlsx,You are about to start a block of type 1 trials.,4,4,0,Go,Go,0.24,0.05,0.2,space,green,horizontal,space,2.726087200047914,None,space,1,0.28787300002295524,None,,,,0,0,0,0,0,4,4,4,24.986278600001242,,,,,,,,,,,,,,,,24.970701300015207,25.003024799982086,25.70248109998647,25.70248109998647,26.201856300001964,26.186232000007294,26.18694460002007,26.201856300001964,26.452054900000803,26.63489169999957,26.63489169999957,26.936167299980298,space,1,0.28787300002295524,None,26.942587499972433,27.45088790002046,28.44991670001764,28.434198100003414,,,,,,,,,,,,,,,,,005,001,2025-04-27_19h59.44.535,Cued GoNogo Task,2024.2.4,59.98764254232577,2025-04-27 19h59.54.864020 +0200,
block/CondBlock1.xlsx,You are about to start a block of type 1 trials.,5,5,0,Go,Go,0.21,0.05,0.2,space,blue,horizontal,space,2.726087200047914,None,space,1,0.2834341999841854,None,,,,0,0,0,0,0,5,5,5,28.44991670001764,,,,,,,,,,,,,,,,28.434495599998627,28.44991670001764,29.149555300013162,29.149555300013162,29.649095300002955,29.63314829999581,29.63365640002303,29.649095300002955,29.86582740000449,30.048906599986367,30.048906599986367,30.334322799986694,space,1,0.2834341999841854,None,30.33761330001289,30.848223400011193,31.84755900001619,31.832126299967058,,,,,,,,,,,,,,,,,005,001,2025-04-27_19h59.44.535,Cued GoNogo Task,2024.2.4,59.98764254232577,2025-04-27 19h59.54.864020 +0200,
block/CondBlock1.xlsx,You are about to start a block of type 1 trials.,6,6,0,Go,Go,0.11,0.2,0.05,space,blue,vertical,space,2.726087200047914,None,space,1,0.3523215999593958,None,,,,0,0,0,0,0,6,6,6,31.84755900001619,,,,,,,,,,,,,,,,31.83257309999317,31.84755900001619,32.54676060000202,32.54676060000202,33.046415099990554,33.03056350001134,33.03124859998934,33.046415099990554,33.1630307000014,33.346402499999385,33.346402499999385,33.71366820001276,space,1,0.3523215999593958,None,33.71933410002384,34.21224149997579,35.211396700004116,35.195246000017505,,,,,,,,,,,,,,,,,005,001,2025-04-27_19h59.44.535,Cued GoNogo Task,2024.2.4,59.98764254232577,2025-04-27 19h59.54.864020 +0200,
block/CondBlock1.xlsx,You are about to start a block of type 1 trials.,7,7,0,Go,Go,0.15,0.2,0.05,space,blue,vertical,space,2.726087200047914,None,space,1,0.2420189999975264,None,,,,0,0,0,0,0,7,7,7,35.211396700004116,,,,,,,,,,,,,,,,35.19551069999579,35.22825799998827,35.92765039997175,35.92765039997175,36.427102599991485,36.41102699999465,36.41150950000156,36.427102599991485,36.57687879999867,36.77676809998229,36.77676809998229,37.02746279997518,space,1,0.2420189999975264,None,37.03036340000108,37.54277090000687,38.54181660001632,38.52616800001124,,,,,,,,,,,,,,,,,005,001,2025-04-27_19h59.44.535,Cued GoNogo Task,2024.2.4,59.98764254232577,2025-04-27 19h59.54.864020 +0200,
block/CondBlock1.xlsx,You are about to start a block of type 1 trials.,8,8,0,NoGo,NoGo,0.3,0.05,0.2,none,blue,horizontal,space,2.726087200047914,None,space,0,0.2581985999713652,None,,,,0,0,0,0,0,8,8,8,38.54181660001632,,,,,,,,,,,,,,,,38.52642609999748,38.54181660001632,39.24145749997115,39.24145749997115,39.74102159996983,39.725228299968876,39.7259056000039,39.74102159996983,40.0408401999739,40.24056980002206,40.24056980002206,40.508058100007474,space,0,0.2581985999713652,None,40.515239399974234,41.0232181000174,42.02222280000569,42.006551300000865,,,,,,,,,,,,,,,,,005,001,2025-04-27_19h59.44.535,Cued GoNogo Task,2024.2.4,59.98764254232577,2025-04-27 19h59.54.864020 +0200,
block/CondBlock1.xlsx,You are about to start a block of type 1 trials.,9,9,0,NoGo,NoGo,0.17,0.05,0.2,none,blue,horizontal,space,2.726087200047914,None,None,1,,,,,,0,0,0,0,0,9,9,9,42.02222280000569,,,,,,,,,,,,,,,,42.006840399990324,42.02222280000569,42.721846400003415,42.721846400003415,43.221368699974846,43.205479399999604,43.2060763000045,43.221368699974846,43.40449460002128,43.58769199997187,43.58769199997187,44.0709782000049,None,1,,,44.073229699977674,44.5702089999686,45.56931059999624,45.55343999998877,44.08742419996997,44.08742419996997,,,,,,,,,,,,,,,005,001,2025-04-27_19h59.44.535,Cued GoNogo Task,2024.2.4,59.98764254232577,2025-04-27 19h59.54.864020 +0200,
block/CondBlock1.xlsx,You are about to start a block of type 1 trials.,10,10,0,NoGo,NoGo,0.26,0.2,0.05,none,green,vertical,space,2.726087200047914,None,space,0,0.24823560001095757,None,,,,0,0,0,0,0,10,10,10,45.56931059999624,,,,,,,,,,,,,,,,45.55366829998093,45.58586849999847,46.28551630000584,46.28551630000584,46.78507129999343,46.769282899971586,46.77005920000374,46.78507129999343,47.051657999982126,47.23478369996883,47.23478369996883,47.48612899996806,space,0,0.24823560001095757,None,47.49020429997472,48.00075140001718,49.00010349997319,48.98401899996679,,,,,,,,,,,,,,,,,005,001,2025-04-27_19h59.44.535,Cued GoNogo Task,2024.2.4,59.98764254232577,2025-04-27 19h59.54.864020 +0200,
block/CondBlock1.xlsx,You are about to start a block of type 1 trials.,11,11,0,Go,Go,0.27,0.05,0.2,space,green,horizontal,space,2.726087200047914,None,space,1,0.29853169998386875,None,,,,0,0,0,0,0,11,11,11,49.00010349997319,,,,,,,,,,,,,,,,48.98428530001547,49.00010349997319,49.699550200020894,49.699550200020894,50.19895260001067,50.18318499997258,50.18389779998688,50.19895260001067,50.48208769998746,50.665273599966895,50.665273599966895,50.966848200012464,space,1,0.29853169998386875,None,50.97272700001486,51.48112880002009,52.480661700014025,52.46476339997025,,,,,,,,,,,,,,,,,005,001,2025-04-27_19h59.44.535,Cued GoNogo Task,2024.2.4,59.98764254232577,2025-04-27 19h59.54.864020 +0200,
block/CondBlock1.xlsx,You are about to start a block of type 1 trials.,12,12,0,Go,Go,0.16,0.2,0.05,space,green,vertical,space,2.726087200047914,None,space,1,0.3338380999630317,None,,,,0,0,0,0,0,12,12,12,52.480661700014025,,,,,,,,,,,,,,,,52.46505529998103,52.480661700014025,53.17989139998099,53.17989139998099,53.67939170001773,53.663553999969736,53.66412410000339,53.67939170001773,53.846041699987836,54.02914110000711,54.02914110000711,54.380080199975055,space,1,0.3338380999630317,None,54.38407729996834,54.89516909996746,55.89444230002118,55.878646400000434,,,,,,,,,,,,,,,,,005,001,2025-04-27_19h59.44.535,Cued GoNogo Task,2024.2.4,59.98764254232577,2025-04-27 19h59.54.864020 +0200,
block/CondBlock1.xlsx,You are about to start a block of type 1 trials.,13,13,0,Go,Go,0.13,0.2,0.05,space,green,vertical,space,2.726087200047914,None,space,1,0.3615356999798678,None,,,,0,0,0,0,0,13,13,13,55.89444230002118,,,,,,,,,,,,,,,,55.879068100010045,55.89444230002118,56.59384109999519,56.59384109999519,57.0933662999887,57.0773478000192,57.07812040002318,57.0933662999887,57.22653879999416,57.409602399973664,57.409602399973664,57.77742820000276,space,1,0.3615356999798678,None,57.7837924999767,58.29236339998897,59.291400099988095,59.2756936000078,,,,,,,,,,,,,,,,,005,001,2025-04-27_19h59.44.535,Cued GoNogo Task,2024.2.4,59.98764254232577,2025-04-27 19h59.54.864020 +0200,
block/CondBlock1.xlsx,You are about to start a block of type 1 trials.,14,14,0,Go,Go,0.12,0.05,0.2,space,blue,horizontal,space,2.726087200047914,None,space,1,0.32407259999308735,None,,,,0,0,0,0,0,14,14,14,59.291400099988095,,,,,,,,,,,,,,,,59.276032499969006,59.291400099988095,59.99077129998477,59.99077129998477,60.490392500010785,60.47466639999766,60.475304000021424,60.490392500010785,60.62393030000385,60.80688960000407,60.80688960000407,61.140896299970336,space,1,0.32407259999308735,None,61.1438138000085,61.656306500022765,62.655396300018765,62.63950079999631,,,,,,,,,,,,,,,,,005,001,2025-04-27_19h59.44.535,Cued GoNogo Task,2024.2.4,59.98764254232577,2025-04-27 19h59.54.864020 +0200,
block/CondBlock1.xlsx,You are about to start a block of type 1 trials.,15,15,0,Go,Go,0.45,0.2,0.05,space,blue,vertical,space,2.726087200047914,None,space,1,0.3149383999989368,None,,,,0,0,0,0,0,15,15,15,62.655396300018765,,,,,,,,,,,,,,,,62.63975470000878,62.655396300018765,63.35486339998897,63.35486339998897,63.85444789996836,63.8386103999801,63.83952009998029,63.85444789996836,64.30400659999577,64.50400309998076,64.50400309998076,64.82214459998067,space,1,0.3149383999989368,None,64.82615979999537,65.33645329996943,66.33576119999634,66.32009479997214,,,,,,,,,,,,,,,,,005,001,2025-04-27_19h59.44.535,Cued GoNogo Task,2024.2.4,59.98764254232577,2025-04-27 19h59.54.864020 +0200,
block/CondBlock1.xlsx,You are about to start a block of type 1 trials.,16,16,0,NoGo,NoGo,0.14,0.2,0.05,none,green,vertical,space,2.726087200047914,None,None,1,,,,,,0,0,0,0,0,16,16,16,66.33576119999634,,,,,,,,,,,,,,,,66.32042190001812,66.33576119999634,67.03521329996875,67.03521329996875,67.534680199984,67.51880829996662,67.51933560002362,67.534680199984,67.68448519997764,67.86777209996944,67.86777209996944,68.35169049998512,None,1,,,68.35463479999453,68.86697829997865,69.86624140001368,69.85027880000416,68.36736829997972,68.36736829997972,,,,,,,,,,,,,,,005,001,2025-04-27_19h59.44.535,Cued GoNogo Task,2024.2.4,59.98764254232577,2025-04-27 19h59.54.864020 +0200,
block/CondBlock1.xlsx,You are about to start a block of type 1 trials.,17,17,0,Go,Go,0.12,0.05,0.2,space,green,horizontal,space,2.726087200047914,None,space,1,0.25405320001300424,None,,,,0,0,0,0,0,17,17,17,69.86624140001368,,,,,,,,,,,,,,,,69.85055650002323,69.86624140001368,70.56563460000325,70.56563460000325,71.0653402999742,71.04924610001035,71.04988519998733,71.0653402999742,71.19835839996813,71.38140760001261,71.38140760001261,71.64929650002159,space,1,0.25405320001300424,None,71.65296570002101,72.16446940001333,,73.16383699997095,,,,,,,,,,,,,,,,,005,001,2025-04-27_19h59.44.535,Cued GoNogo Task,2024.2.4,59.98764254232577,2025-04-27 19h59.54.864020 +0200,
block/CondBlock1.xlsx,You are about to start a block of type 1 trials.,18,18,0,Go,Go,0.47,0.2,0.05,space,blue,vertical,space,2.726087200047914,None,space,1,0.255296699993778,None,,,,0,0,0,0,0,18,18,18,73.1802579999785,,,,,,,,,,,,,,,,73.1642756999936,73.1802579999785,73.86266869999235,73.87963290000334,74.36252829997102,74.34692490001908,74.34777930000564,74.36252829997102,74.84543490002397,75.02858440001728,75.02858440001728,75.29632989998208,space,1,0.255296699993778,None,75.30133240000578,75.81141129997559,76.81027229997562,76.79452009999659,,,,,,,,,,,,,,,,,005,001,2025-04-27_19h59.44.535,Cued GoNogo Task,2024.2.4,59.98764254232577,2025-04-27 19h59.54.864020 +0200,
block/CondBlock1.xlsx,You are about to start a block of type 1 trials.,19,19,0,Go,Go,0.18,0.2,0.05,space,green,vertical,space,2.726087200047914,None,space,1,0.2507311000372283,None,,,,0,0,0,0,0,19,19,19,76.81027229997562,,,,,,,,,,,,,,,,76.79486299998825,76.81027229997562,77.50977329997113,77.50977329997113,78.00949009996839,77.9935095999972,77.99419549998129,78.00949009996839,78.1927497999859,78.37584340001922,78.37584340001922,78.643557399977,space,1,0.2507311000372283,None,78.64733780000824,79.1583272999851,80.15761629998451,80.14220250002109,,,,,,,,,,,,,,,,,005,001,2025-04-27_19h59.44.535,Cued GoNogo Task,2024.2.4,59.98764254232577,2025-04-27 19h59.54.864020 +0200,
block/CondBlock1.xlsx,You are about to start a block of type 1 trials.,20,20,0,Go,Go,0.19,0.2,0.05,space,blue,vertical,space,2.726087200047914,None,space,1,0.30325970001285896,None,,,,0,0,0,0,0,20,20,20,80.15761629998451,,,,,,,,,,,,,,,,80.14242450002348,80.15761629998451,80.85717959998874,80.85717959998874,81.35675689997151,81.34067110001342,81.34137949999422,81.35675689997151,81.55646250001155,81.73958140000468,81.73958140000468,82.05712199996924,space,1,0.30325970001285896,None,82.06108740001218,82.5722730999696,83.5714508999954,83.55550279997988,,,,,,,,,,,,,,,,,005,001,2025-04-27_19h59.44.535,Cued GoNogo Task,2024.2.4,59.98764254232577,2025-04-27 19h59.54.864020 +0200,
block/CondBlock1.xlsx,You are about to start a block of type 1 trials.,21,21,0,Go,Go,0.14,0.2,0.05,space,blue,vertical,space,2.726087200047914,None,space,1,0.29140909999841824,None,,,,0,0,0,0,0,21,21,21,83.5714508999954,,,,,,,,,,,,,,,,83.55566519999411,83.5714508999954,84.27100820001215,84.27100820001215,84.7705984999775,84.75471469998593,84.75545850000344,84.7705984999775,84.92036579997512,85.10362950002309,85.10362950002309,85.40442350000376,space,1,0.29140909999841824,None,85.4093317000079,85.91968779999297,86.91887749999296,86.90312899998389,,,,,,,,,,,,,,,,,005,001,2025-04-27_19h59.44.535,Cued GoNogo Task,2024.2.4,59.98764254232577,2025-04-27 19h59.54.864020 +0200,
block/CondBlock1.xlsx,You are about to start a block of type 1 trials.,22,22,0,Go,Go,0.15,0.2,0.05,space,blue,vertical,space,2.726087200047914,None,space,1,0.27201429998967797,None,,,,0,0,0,0,0,22,22,22,86.91887749999296,,,,,,,,,,,,,,,,86.90347109996947,86.91887749999296,87.6181465999689,87.6181465999689,88.11784269998316,88.10154870001134,88.10213890002342,88.11784269998316,88.26786670001457,88.46762010001112,88.46762010001112,88.75177350000013,space,1,0.27201429998967797,None,88.7555145000224,89.26684840000235,90.2660060999915,90.25034349999623,,,,,,,,,,,,,,,,,005,001,2025-04-27_19h59.44.535,Cued GoNogo Task,2024.2.4,59.98764254232577,2025-04-27 19h59.54.864020 +0200,
block/CondBlock1.xlsx,You are about to start a block of type 1 trials.,23,23,0,Go,Go,0.23,0.05,0.2,space,green,horizontal,space,2.726087200047914,None,space,1,0.3854652000009082,None,,,,0,0,0,0,0,23,23,23,90.2660060999915,,,,,,,,,,,,,,,,90.25065339996945,90.2660060999915,90.96526540000923,90.96526540000923,91.46499659999972,91.44917340000393,91.45000179996714,91.46499659999972,91.69819949998055,91.88134530000389,91.88134530000389,92.28191580000566,space,1,0.3854652000009082,None,92.28546480002115,92.79731489997357,93.79658530000597,93.7805961999693,,,,,,,,,,,,,,,,,005,001,2025-04-27_19h59.44.535,Cued GoNogo Task,2024.2.4,59.98764254232577,2025-04-27 19h59.54.864020 +0200,
block/CondBlock1.xlsx,You are about to start a block of type 1 trials.,24,24,0,Go,Go,0.2,0.2,0.05,space,blue,vertical,space,2.726087200047914,None,space,1,0.3763174000196159,None,,,,0,0,0,0,0,24,24,24,93.79658530000597,,,,,,,,,,,,,,,,93.78091670002323,93.79658530000597,94.49600310000824,94.49600310000824,94.99530950002372,94.97943249996752,94.98009779996937,94.99530950002372,95.19533349998528,95.39521200000308,95.39521200000308,95.77935259998776,space,1,0.3763174000196159,None,95.78413500002353,96.29440199997043,97.29347099998267,97.27816200000234,,,,,,,,,,,,,,,,,005,001,2025-04-27_19h59.44.535,Cued GoNogo Task,2024.2.4,59.98764254232577,2025-04-27 19h59.54.864020 +0200,
block/CondBlock1.xlsx,You are about to start a block of type 1 trials.,25,25,0,Go,Go,0.15,0.2,0.05,space,blue,vertical,space,2.726087200047914,None,space,1,0.2726214000140317,None,,,,0,0,0,0,0,25,25,25,97.29347099998267,,,,,,,,,,,,,,,,97.27848139998969,97.29347099998267,97.99302609998267,97.99302609998267,98.49264650000259,98.4765876000165,98.47715069999686,98.49264650000259,98.64252799999667,98.84239359997446,98.84239359997446,99.12615590001224,space,1,0.2726214000140317,None,99.12858089996735,99.641562099976,100.64086899999529,100.6248264000169,,,,,,,,,,,,,,,,,005,001,2025-04-27_19h59.44.535,Cued GoNogo Task,2024.2.4,59.98764254232577,2025-04-27 19h59.54.864020 +0200,
block/CondBlock1.xlsx,You are about to start a block of type 1 trials.,26,26,0,NoGo,NoGo,0.2,0.2,0.05,none,blue,vertical,space,2.726087200047914,None,None,1,,,,,,0,0,0,0,0,26,26,26,100.64086899999529,,,,,,,,,,,,,,,,100.62509919999866,100.64086899999529,101.34031509998022,101.34031509998022,101.83966970001347,101.82415589998709,101.82496140000876,101.83966970001347,102.03967640001792,102.2396750000189,102.2396750000189,102.72327000001678,None,1,,,102.7258403999731,103.23870629997691,104.23788919998333,104.22195659996942,102.73913739999989,102.73913739999989,,,,,,,,,,,,,,,005,001,2025-04-27_19h59.44.535,Cued GoNogo Task,2024.2.4,59.98764254232577,2025-04-27 19h59.54.864020 +0200,
block/CondBlock1.xlsx,You are about to start a block of type 1 trials.,27,27,0,Go,Go,0.29,0.05,0.2,space,green,horizontal,space,2.726087200047914,None,space,1,0.39515539997955784,None,,,,0,0,0,0,0,27,27,27,104.23788919998333,,,,,,,,,,,,,,,,104.22224749997258,104.23788919998333,104.93727950000903,104.93727950000903,105.4369012999814,105.42087749997154,105.42152839998016,105.4369012999814,105.73673740000231,105.91993620002177,105.91993620002177,106.32076550001511,space,1,0.39515539997955784,None,106.32468239997979,106.8357423999696,107.83473689999664,107.81890620000195,,,,,,,,,,,,,,,,,005,001,2025-04-27_19h59.44.535,Cued GoNogo Task,2024.2.4,59.98764254232577,2025-04-27 19h59.54.864020 +0200,
block/CondBlock1.xlsx,You are about to start a block of type 1 trials.,28,28,0,Go,Go,0.24,0.2,0.05,space,blue,vertical,space,2.726087200047914,None,space,1,0.21571530000073835,None,,,,0,0,0,0,0,28,28,28,107.83473689999664,,,,,,,,,,,,,,,,107.81915190001018,107.83473689999664,108.53438879997702,108.53438879997702,109.0338722000015,109.01803049998125,109.01865400001407,109.0338722000015,109.2837396999821,109.4669670999865,109.4669670999865,109.68567629996687,space,1,0.21571530000073835,None,109.69044570002006,110.19954579998739,111.19889860000694,111.18331340001896,,,,,,,,,,,,,,,,,005,001,2025-04-27_19h59.44.535,Cued GoNogo Task,2024.2.4,59.98764254232577,2025-04-27 19h59.54.864020 +0200,
block/CondBlock1.xlsx,You are about to start a block of type 1 trials.,29,29,0,Go,Go,0.15,0.05,0.2,space,green,horizontal,space,2.726087200047914,None,space,1,0.14314290002221242,None,,,,0,0,0,0,0,29,29,29,111.19889860000694,,,,,,,,,,,,,,,,111.18375249998644,111.19889860000694,111.89802079997025,111.89802079997025,112.39788260002388,112.38188150001224,112.38259910000488,112.39788260002388,112.54765439999755,112.74754569999641,112.74754569999641,112.89849059999688,space,1,0.14314290002221242,None,112.90172319998965,113.4135836000205,114.41260049998527,114.39649900002405,,,,,,,,,,,,,,,,,005,001,2025-04-27_19h59.44.535,Cued GoNogo Task,2024.2.4,59.98764254232577,2025-04-27 19h59.54.864020 +0200,
block/CondBlock1.xlsx,You are about to start a block of type 1 trials.,30,30,0,Go,Go,0.23,0.2,0.05,space,green,vertical,space,2.726087200047914,None,space,1,0.27130449999822304,None,,,,0,0,0,0,0,30,30,30,114.41260049998527,,,,,,,,,,,,,,,,114.39667009998811,114.41260049998527,115.1122395999846,115.1122395999846,115.61170840001432,115.5960920000216,115.59681919997092,115.61170840001432,115.84496259997832,116.02819929999532,116.02819929999532,116.31226759997662,space,1,0.27130449999822304,None,116.31619139999384,116.82751939998707,117.82669419999002,117.81083779997425,,,,,,,,,,,,,,,,,005,001,2025-04-27_19h59.44.535,Cued GoNogo Task,2024.2.4,59.98764254232577,2025-04-27 19h59.54.864020 +0200,
block/CondBlock1.xlsx,You are about to start a block of type 1 trials.,31,31,0,Go,Go,0.28,0.2,0.05,space,green,vertical,space,2.726087200047914,None,space,1,0.15898089995607734,None,,,,0,0,0,0,0,31,31,31,117.82669419999002,,,,,,,,,,,,,,,,117.81111850001616,117.82669419999002,118.52623989997664,118.52623989997664,119.02561640000204,119.00973839999642,119.01044859999092,119.02561640000204,119.30876619997434,119.49202770000556,119.49202770000556,119.65936079999665,space,1,0.15898089995607734,None,119.66324580000946,120.17487859999528,,121.17398979997961,,,,,,,,,,,,,,,,,005,001,2025-04-27_19h59.44.535,Cued GoNogo Task,2024.2.4,59.98764254232577,2025-04-27 19h59.54.864020 +0200,
block/CondBlock1.xlsx,You are about to start a block of type 1 trials.,32,32,0,Go,Go,0.19,0.2,0.05,space,green,vertical,space,2.726087200047914,None,space,1,0.11177639995003119,None,,,,0,0,0,0,0,32,32,32,121.19067759998143,,,,,,,,,,,,,,,,121.1742658999865,121.19067759998143,121.87328529998194,121.88995240000077,122.37298009998631,122.35706670000218,122.35775839997223,122.37298009998631,122.57283730001654,122.75596300000325,122.75596300000325,122.87420149997342,space,1,0.11177639995003119,None,122.87857230001828,123.3887218000018,124.38791009999113,124.37235229997896,,,,,,,,,,,,,,,,,005,001,2025-04-27_19h59.44.535,Cued GoNogo Task,2024.2.4,59.98764254232577,2025-04-27 19h59.54.864020 +0200,
block/CondBlock1.xlsx,You are about to start a block of type 1 trials.,33,33,0,Go,Go,0.12,0.2,0.05,space,green,vertical,space,2.726087200047914,None,space,1,0.1957613000413403,None,,,,0,0,0,0,0,33,33,33,124.38791009999113,,,,,,,,,,,,,,,,124.37272300000768,124.38791009999113,125.0873380000121,125.0873380000121,125.58699759998126,125.57133409997914,125.57204930001171,125.58699759998126,125.7202105000033,125.90333240001928,125.90333240001928,126.10436519997893,space,1,0.1957613000413403,None,126.10903340001823,126.61941739998292,127.61858700000448,127.60289049998391,,,,,,,,,,,,,,,,,005,001,2025-04-27_19h59.44.535,Cued GoNogo Task,2024.2.4,59.98764254232577,2025-04-27 19h59.54.864020 +0200,
block/CondBlock1.xlsx,You are about to start a block of type 1 trials.,34,34,0,Go,Go,0.18,0.2,0.05,space,blue,vertical,space,2.726087200047914,None,space,1,0.31582700001308694,None,,,,0,0,0,0,0,34,34,34,127.61858700000448,,,,,,,,,,,,,,,,127.60325839999132,127.61858700000448,128.31790550000733,128.31790550000733,128.81770600000164,128.80198749998817,128.80278969998471,128.81770600000164,129.00088309997227,129.1839812999824,129.1839812999824,129.5028578999918,space,1,0.31582700001308694,None,129.50715550000314,130.01668529998278,131.0157698999974,130.99994120001793,,,,,,,,,,,,,,,,,005,001,2025-04-27_19h59.44.535,Cued GoNogo Task,2024.2.4,59.98764254232577,2025-04-27 19h59.54.864020 +0200,
block/CondBlock1.xlsx,You are about to start a block of type 1 trials.,35,35,0,Go,Go,0.21,0.2,0.05,space,blue,vertical,space,2.726087200047914,None,space,1,0.17363440000917763,None,,,,0,0,0,0,0,35,35,35,131.0157698999974,,,,,,,,,,,,,,,,131.00031709996983,131.0157698999974,131.7153748999699,131.7153748999699,132.21493030001875,132.19885009998688,132.19950109999627,132.21493030001875,132.43134379998082,132.61477609997382,132.61477609997382,132.79947869997704,space,1,0.17363440000917763,None,132.80473779997556,133.31401939998614,134.3130063000135,134.2973476999905,,,,,,,,,,,,,,,,,005,001,2025-04-27_19h59.44.535,Cued GoNogo Task,2024.2.4,59.98764254232577,2025-04-27 19h59.54.864020 +0200,
block/CondBlock1.xlsx,You are about to start a block of type 1 trials.,36,36,0,Go,Go,0.2,0.2,0.05,space,green,vertical,space,2.726087200047914,None,space,1,0.20403090002946556,None,,,,0,0,0,0,0,36,36,36,134.3130063000135,,,,,,,,,,,,,,,,134.2975983999786,134.3130063000135,135.01268859999254,135.01268859999254,135.51228799996898,135.49617340002442,135.49686519999523,135.51228799996898,135.71188279998023,135.91189270000905,135.91189270000905,136.12961379997432,space,1,0.20403090002946556,None,136.13383000000613,136.64465370000107,137.64356739999494,137.62788569997065,,,,,,,,,,,,,,,,,005,001,2025-04-27_19h59.44.535,Cued GoNogo Task,2024.2.4,59.98764254232577,2025-04-27 19h59.54.864020 +0200,
block/CondBlock1.xlsx,You are about to start a block of type 1 trials.,37,37,0,Go,Go,0.45,0.05,0.2,space,blue,horizontal,space,2.726087200047914,None,space,1,0.19845700002042577,None,,,,0,0,0,0,0,37,37,37,137.64356739999494,,,,,,,,,,,,,,,,137.62825619999785,137.64356739999494,138.34328769997228,138.34328769997228,138.8427896000212,138.82693219999783,138.82760620000772,138.8427896000212,139.29222399997525,139.4924426000216,139.4924426000216,139.69359589996748,space,1,0.19845700002042577,None,139.69888929999433,140.20828369999072,141.20741610002005,141.19148089998635,,,,,,,,,,,,,,,,,005,001,2025-04-27_19h59.44.535,Cued GoNogo Task,2024.2.4,59.98764254232577,2025-04-27 19h59.54.864020 +0200,
block/CondBlock1.xlsx,You are about to start a block of type 1 trials.,38,38,0,Go,Go,0.13,0.05,0.2,space,blue,horizontal,space,2.726087200047914,None,space,1,0.2643623999902047,None,,,,0,0,0,0,0,38,38,38,141.20741610002005,,,,,,,,,,,,,,,,141.1917417999939,141.20741610002005,141.90684499999043,141.90684499999043,142.40634460002184,142.3905323999934,142.39113709999947,142.40634460002184,142.5397183999885,142.72287160000997,142.72287160000997,142.99082700000145,space,1,0.2643623999902047,None,142.99365379998926,143.50550560001284,144.504788500024,144.4889560000156,,,,,,,,,,,,,,,,,005,001,2025-04-27_19h59.44.535,Cued GoNogo Task,2024.2.4,59.98764254232577,2025-04-27 19h59.54.864020 +0200,
block/CondBlock1.xlsx,You are about to start a block of type 1 trials.,39,39,0,Go,Go,0.46,0.2,0.05,space,blue,vertical,space,2.726087200047914,None,space,1,0.20102669997140765,None,,,,0,0,0,0,0,39,39,39,144.504788500024,,,,,,,,,,,,,,,,144.48924470000202,144.504788500024,145.20440300001064,145.20440300001064,145.7038638999802,145.6877506999881,145.6884321999969,145.7038638999802,146.17012009996688,146.35339960001875,146.35339960001875,146.57116529997438,space,1,0.20102669997140765,None,146.57622200000333,147.0859578999807,148.08516590000363,148.0695171999978,,,,,,,,,,,,,,,,,005,001,2025-04-27_19h59.44.535,Cued GoNogo Task,2024.2.4,59.98764254232577,2025-04-27 19h59.54.864020 +0200,
block/CondBlock1.xlsx,You are about to start a block of type 1 trials.,40,40,0,Go,Go,0.29,0.2,0.05,space,blue,vertical,space,2.726087200047914,None,space,1,0.26046259998111054,None,,,,0,0,0,0,0,40,40,40,148.08516590000363,,,,,,,,,,,,,,,,148.06982520001475,148.08516590000363,148.78450229996815,148.78450229996815,149.2841415000148,149.2683653999702,149.26913219998823,149.2841415000148,149.5839655000018,149.76720669999486,149.76720669999486,150.03458480001427,space,1,0.26046259998111054,None,150.0381416999735,150.5496562999906,151.54901909996988,151.53312639996875,,,,,,,,,,,,,,,,,005,001,2025-04-27_19h59.44.535,Cued GoNogo Task,2024.2.4,59.98764254232577,2025-04-27 19h59.54.864020 +0200,
block/CondBlock1.xlsx,You are about to start a block of type 1 trials.,41,41,0,Go,Go,0.22,0.2,0.05,space,blue,vertical,space,2.726087200047914,None,space,1,0.3424057000083849,None,,,,0,0,0,0,0,41,41,41,151.54901909996988,,,,,,,,,,,,,,,,151.5336303000222,151.54901909996988,152.24832040001638,152.24832040001638,152.74805739999283,152.73170740000205,152.7322982000187,152.74805739999283,152.98114639997948,153.16421959997388,153.16421959997388,153.51512689999072,space,1,0.3424057000083849,None,153.51917119999416,154.0302736000158,155.0292290999787,155.0135802999721,,,,,,,,,,,,,,,,,005,001,2025-04-27_19h59.44.535,Cued GoNogo Task,2024.2.4,59.98764254232577,2025-04-27 19h59.54.864020 +0200,
block/CondBlock1.xlsx,You are about to start a block of type 1 trials.,42,42,0,Go,Go,0.49,0.2,0.05,space,blue,vertical,space,2.726087200047914,None,space,1,0.204149299999699,None,,,,0,0,0,0,0,42,42,42,155.0292290999787,,,,,,,,,,,,,,,,155.0138750000042,155.0292290999787,155.7288842999842,155.7288842999842,156.2285904000164,156.21273089997703,156.21340349997627,156.2285904000164,156.7281317000161,156.91094929998508,156.91094929998508,157.12926790001802,space,1,0.204149299999699,None,157.1336659999797,157.6440974000143,158.64301519998116,158.62716209999053,,,,,,,,,,,,,,,,,005,001,2025-04-27_19h59.44.535,Cued GoNogo Task,2024.2.4,59.98764254232577,2025-04-27 19h59.54.864020 +0200,
block/CondBlock1.xlsx,You are about to start a block of type 1 trials.,43,43,0,Go,Go,0.2,0.2,0.05,space,blue,vertical,space,2.726087200047914,None,space,1,0.3140111999819055,None,,,,0,0,0,0,0,43,43,43,158.64301519998116,,,,,,,,,,,,,,,,158.62743009999394,158.64301519998116,159.34254350000992,159.34254350000992,159.8421973999939,159.82651819998864,159.82747620000737,159.8421973999939,160.04205320001347,160.24178889999166,160.24178889999166,160.55992199998582,space,1,0.3140111999819055,None,160.5647957000183,161.07434180000564,162.07364159997087,162.05771889997413,,,,,,,,,,,,,,,,,005,001,2025-04-27_19h59.44.535,Cued GoNogo Task,2024.2.4,59.98764254232577,2025-04-27 19h59.54.864020 +0200,
block/CondBlock1.xlsx,You are about to start a block of type 1 trials.,44,44,0,Go,Go,0.3,0.05,0.2,space,blue,horizontal,space,2.726087200047914,None,space,1,0.33480420004343614,None,,,,0,0,0,0,0,44,44,44,162.07364159997087,,,,,,,,,,,,,,,,162.05803209997248,162.07364159997087,162.77303949999623,162.77303949999623,163.2728146999725,163.25674869999057,163.25744479999412,163.2728146999725,163.57228780002333,163.77234470000258,163.77234470000258,164.12333530001342,space,1,0.33480420004343614,None,164.1280822000117,164.63819520000834,165.63729490002152,165.62153299996862,,,,,,,,,,,,,,,,,005,001,2025-04-27_19h59.44.535,Cued GoNogo Task,2024.2.4,59.98764254232577,2025-04-27 19h59.54.864020 +0200,
block/CondBlock1.xlsx,You are about to start a block of type 1 trials.,45,45,0,NoGo,NoGo,0.21,0.05,0.2,none,green,horizontal,space,2.726087200047914,None,space,0,0.2709568000282161,None,,,,0,0,0,0,0,45,45,45,165.63729490002152,,,,,,,,,,,,,,,,165.62181440001586,165.63729490002152,166.33682819997193,166.33682819997193,166.83649459999288,166.8205278000096,166.82128989999183,166.83649459999288,167.0529335999745,167.23607049998827,167.23607049998827,167.51999240001896,space,0,0.2709568000282161,None,167.52367959998082,168.03541319997748,169.03433950000908,169.01909700001124,,,,,,,,,,,,,,,,,005,001,2025-04-27_19h59.44.535,Cued GoNogo Task,2024.2.4,59.98764254232577,2025-04-27 19h59.54.864020 +0200,
block/CondBlock1.xlsx,You are about to start a block of type 1 trials.,46,46,0,NoGo,NoGo,0.45,0.05,0.2,none,blue,horizontal,space,2.726087200047914,None,space,0,0.18369859998347238,None,,,,0,0,0,0,0,46,46,46,169.03433950000908,,,,,,,,,,,,,,,,169.019573699974,169.03433950000908,169.7340702000074,169.7340702000074,170.23343020002358,170.21751699998276,170.21804040001007,170.23343020002358,170.68319000001065,170.88306259998353,170.88306259998353,171.0841990999761,space,0,0.18369859998347238,None,171.08467559999553,171.59930629999144,,172.59855409996817,,,,,,,,,,,,,,,,,005,001,2025-04-27_19h59.44.535,Cued GoNogo Task,2024.2.4,59.98764254232577,2025-04-27 19h59.54.864020 +0200,
block/CondBlock1.xlsx,You are about to start a block of type 1 trials.,47,47,0,Go,Go,0.24,0.05,0.2,space,green,horizontal,space,2.726087200047914,None,space,1,0.30020659998990595,None,,,,0,0,0,0,0,47,47,47,172.61482590000378,,,,,,,,,,,,,,,,172.59895279997727,172.61482590000378,173.2979566999711,173.31429100001696,173.7973125000135,173.78112030000193,173.78150579996873,173.7973125000135,174.04700269998284,174.23043599998346,174.23043599998346,174.5475738000241,space,1,0.30020659998990595,None,174.55056010000408,175.06294829997933,176.0622461999883,176.04665049997857,,,,,,,,,,,,,,,,,005,001,2025-04-27_19h59.44.535,Cued GoNogo Task,2024.2.4,59.98764254232577,2025-04-27 19h59.54.864020 +0200,
block/CondBlock1.xlsx,You are about to start a block of type 1 trials.,48,48,0,NoGo,NoGo,0.15,0.2,0.05,none,blue,vertical,space,2.726087200047914,None,None,1,,,,,,0,0,0,0,0,48,48,48,176.0622461999883,,,,,,,,,,,,,,,,176.04707470000722,176.0622461999883,176.7616951999953,176.7616951999953,177.26139439997496,177.2453032999765,177.2459577000118,177.26139439997496,177.41096160002053,177.6108981000143,177.6108981000143,178.09485039999709,None,1,,,178.0986688999692,178.60997130000032,179.60905640001874,179.59345200000098,178.11047359998338,178.11047359998338,,,,,,,,,,,,,,,005,001,2025-04-27_19h59.44.535,Cued GoNogo Task,2024.2.4,59.98764254232577,2025-04-27 19h59.54.864020 +0200,
block/CondBlock1.xlsx,You are about to start a block of type 1 trials.,49,49,0,Go,Go,0.12,0.05,0.2,space,blue,horizontal,space,2.726087200047914,None,space,1,0.26283099997090176,None,,,,0,0,0,0,0,49,49,49,179.60905640001874,,,,,,,,,,,,,,,,179.59378330002073,179.60905640001874,180.30862099997466,180.30862099997466,180.80824049998773,180.79230939998524,180.79311139998026,180.80824049998773,180.94134010002017,181.12470029998804,181.12470029998804,181.39245440001832,space,1,0.26283099997090176,None,181.39925289998064,181.90740430000005,,182.90694580000127,,,,,,,,,,,,,,,,,005,001,2025-04-27_19h59.44.535,Cued GoNogo Task,2024.2.4,59.98764254232577,2025-04-27 19h59.54.864020 +0200,
block/CondBlock1.xlsx,You are about to start a block of type 1 trials.,50,50,0,Go,Go,0.22,0.2,0.05,space,green,vertical,space,2.726087200047914,None,space,1,0.2334703000378795,None,,,,0,0,0,0,0,50,50,50,182.9231424999889,,,,,,,,,,,,,,,,182.90742990002036,182.9231424999889,183.60592920001363,183.62265139998635,184.10558809997747,184.08962500002235,184.09037609997904,184.10558809997747,184.33870389999356,184.52200629998697,184.52200629998697,184.77264490001835,space,1,0.2334703000378795,None,184.77620839996962,185.28780099999858,186.28694289998384,186.27108069998212,,,,,,,,,,,,,,,,,005,001,2025-04-27_19h59.44.535,Cued GoNogo Task,2024.2.4,59.98764254232577,2025-04-27 19h59.54.864020 +0200,
block/CondBlock1.xlsx,You are about to start a block of type 1 trials.,51,51,0,Go,Go,0.28,0.05,0.2,space,green,horizontal,space,2.726087200047914,None,space,1,0.18621249997522682,None,,,,0,0,0,0,0,51,51,51,186.28694289998384,,,,,,,,,,,,,,,,186.2713417999912,186.28694289998384,186.98646079999162,186.98646079999162,187.48580510000465,187.46975330001442,187.47022780001862,187.48580510000465,187.76894069998525,187.95265759999165,187.95265759999165,188.15347189997556,space,1,0.18621249997522682,None,188.15837199997623,188.66831949999323,189.66737229999853,189.65199410001514,,,,,,,,,,,,,,,,,005,001,2025-04-27_19h59.44.535,Cued GoNogo Task,2024.2.4,59.98764254232577,2025-04-27 19h59.54.864020 +0200,
block/CondBlock1.xlsx,You are about to start a block of type 1 trials.,52,52,0,Go,Go,0.23,0.2,0.05,space,green,vertical,space,2.726087200047914,None,space,1,0.24833540001418442,None,,,,0,0,0,0,0,52,52,52,189.66737229999853,,,,,,,,,,,,,,,,189.65238819998922,189.66737229999853,190.36694669997087,190.36694669997087,190.86665959999664,190.8507329999702,190.851456400007,190.86665959999664,191.0997795999865,191.28299470001366,191.28299470001366,191.53472659998806,space,1,0.24833540001418442,None,191.53867939999327,192.0489957999671,193.04823110002326,193.0321730999858,,,,,,,,,,,,,,,,,005,001,2025-04-27_19h59.44.535,Cued GoNogo Task,2024.2.4,59.98764254232577,2025-04-27 19h59.54.864020 +0200,
block/CondBlock1.xlsx,You are about to start a block of type 1 trials.,53,53,0,Go,Go,0.22,0.05,0.2,space,green,horizontal,space,2.726087200047914,None,space,1,0.2043588999658823,None,,,,0,0,0,0,0,53,53,53,193.04823110002326,,,,,,,,,,,,,,,,193.0324636999867,193.04823110002326,193.74775310000405,193.74775310000405,194.24720300000627,194.23114330001408,194.23214420001023,194.24720300000627,194.4805761000025,194.66342459997395,194.66342459997395,194.8811074999976,space,1,0.2043588999658823,None,194.88644520001253,195.39615669997875,196.3956046999665,196.37995660002343,,,,,,,,,,,,,,,,,005,001,2025-04-27_19h59.44.535,Cued GoNogo Task,2024.2.4,59.98764254232577,2025-04-27 19h59.54.864020 +0200,
block/CondBlock1.xlsx,You are about to start a block of type 1 trials.,54,54,0,NoGo,NoGo,0.14,0.05,0.2,none,green,horizontal,space,2.726087200047914,None,space,0,0.2047590000438504,None,,,,0,0,0,0,0,54,54,54,196.3956046999665,,,,,,,,,,,,,,,,196.38033070001984,196.3956046999665,197.09495439997409,197.09495439997409,197.5943072999944,197.57853130000876,197.57924150000326,197.5943072999944,197.74419920000946,197.92753909999738,197.92753909999738,198.14508450002177,space,0,0.2047590000438504,None,198.1499952999875,198.6601821000222,199.6593568000244,199.6435393000138,,,,,,,,,,,,,,,,,005,001,2025-04-27_19h59.44.535,Cued GoNogo Task,2024.2.4,59.98764254232577,2025-04-27 19h59.54.864020 +0200,
block/CondBlock1.xlsx,You are about to start a block of type 1 trials.,55,55,0,Go,Go,0.15,0.2,0.05,space,blue,vertical,space,2.726087200047914,None,space,1,0.20260309998411685,None,,,,0,0,0,0,0,55,55,55,199.6593568000244,,,,,,,,,,,,,,,,199.6438269999926,199.6593568000244,200.35887890000595,200.35887890000595,200.85862499999348,200.8423807999934,200.84301249997225,200.85862499999348,201.0082543999888,201.20813839999028,201.20813839999028,201.42592970002443,space,1,0.20260309998411685,None,201.42962369997986,201.9407188000041,202.940068099997,202.92434329999378,,,,,,,,,,,,,,,,,005,001,2025-04-27_19h59.44.535,Cued GoNogo Task,2024.2.4,59.98764254232577,2025-04-27 19h59.54.864020 +0200,
block/CondBlock1.xlsx,You are about to start a block of type 1 trials.,56,56,0,Go,Go,0.47,0.2,0.05,space,blue,vertical,space,2.726087200047914,None,space,1,0.14984599995659664,None,,,,0,0,0,0,0,56,56,56,202.940068099997,,,,,,,,,,,,,,,,202.92464909999399,202.940068099997,203.63933999999426,203.63933999999426,204.13914929999737,204.1231764999684,204.12422170001082,204.13914929999737,204.6218732999987,204.80578280001646,204.80578280001646,204.97258090000832,space,1,0.14984599995659664,None,204.97697630000766,205.4879933000193,206.48735650000162,206.47117360000266,,,,,,,,,,,,,,,,,005,001,2025-04-27_19h59.44.535,Cued GoNogo Task,2024.2.4,59.98764254232577,2025-04-27 19h59.54.864020 +0200,
block/CondBlock1.xlsx,You are about to start a block of type 1 trials.,57,57,0,NoGo,NoGo,0.42,0.2,0.05,none,green,vertical,space,2.726087200047914,None,space,0,0.2691589000169188,None,,,,0,0,0,0,0,57,57,57,206.48735650000162,,,,,,,,,,,,,,,,206.47144739999203,206.48735650000162,207.18671259999974,207.18671259999974,207.68603679997614,207.6705472000176,207.67147429997567,207.68603679997614,208.11917379999068,208.30233340000268,208.30233340000268,208.58663590002107,space,0,0.2691589000169188,None,208.5913031999953,209.10175099998014,210.10086559999036,210.08491390000563,,,,,,,,,,,,,,,,,005,001,2025-04-27_19h59.44.535,Cued GoNogo Task,2024.2.4,59.98764254232577,2025-04-27 19h59.54.864020 +0200,
block/CondBlock1.xlsx,You are about to start a block of type 1 trials.,58,58,0,Go,Go,0.22,0.05,0.2,space,green,horizontal,space,2.726087200047914,None,space,1,0.3826515999971889,None,,,,0,0,0,0,0,58,58,58,210.10086559999036,,,,,,,,,,,,,,,,210.0852003999753,210.10086559999036,210.80025620001834,210.80025620001834,211.29985599999782,211.28423290001228,211.28477949998342,211.29985599999782,211.53300669998862,211.7161774999695,211.7161774999695,212.10131810000166,space,1,0.3826515999971889,None,212.10554079996655,212.61537289997796,213.6145508000045,213.5987912999699,,,,,,,,,,,,,,,,,005,001,2025-04-27_19h59.44.535,Cued GoNogo Task,2024.2.4,59.98764254232577,2025-04-27 19h59.54.864020 +0200,
block/CondBlock1.xlsx,You are about to start a block of type 1 trials.,59,59,0,Go,Go,0.3,0.2,0.05,space,blue,vertical,space,2.726087200047914,None,space,1,0.2337790000019595,None,,,,0,0,0,0,0,59,59,59,213.6145508000045,,,,,,,,,,,,,,,,213.59913529996993,213.6145508000045,214.3141927999677,214.3141927999677,214.81368580000708,214.79778399999486,214.79857629997423,214.81368580000708,215.11337219999405,215.31311310001183,215.31311310001183,215.56419339997228,space,1,0.2337790000019595,None,215.56876599998213,216.07921639998676,217.07838359999005,217.06264820002252,,,,,,,,,,,,,,,,,005,001,2025-04-27_19h59.44.535,Cued GoNogo Task,2024.2.4,59.98764254232577,2025-04-27 19h59.54.864020 +0200,
block/CondBlock1.xlsx,You are about to start a block of type 1 trials.,60,60,0,NoGo,NoGo,0.24,0.2,0.05,none,blue,vertical,space,2.726087200047914,None,None,1,,,,,,0,0,0,0,0,60,60,60,217.07838359999005,,,,,,,,,,,,,,,,217.06294079998042,217.07838359999005,217.77781170001253,217.77781170001253,218.27727169997524,218.2615554999793,218.26218790002167,218.27727169997524,218.52737099997466,218.71047469996847,218.71047469996847,219.19434929999989,None,1,,,219.19720960000996,219.70965999999316,,220.7089978000149,219.2098542000167,219.2098542000167,,,,,,,,,,,,,,,005,001,2025-04-27_19h59.44.535,Cued GoNogo Task,2024.2.4,59.98764254232577,2025-04-27 19h59.54.864020 +0200,
block/CondBlock1.xlsx,You are about to start a block of type 1 trials.,61,61,0,NoGo,NoGo,0.1,0.2,0.05,none,green,vertical,space,2.726087200047914,None,None,1,,,,,,0,0,0,0,0,61,61,61,220.72537790000206,,,,,,,,,,,,,,,,220.7092461999855,220.72537790000206,221.40808819996892,221.42491850000806,221.90773979999358,221.89196679997258,221.89267819997622,221.90773979999358,222.00763750000624,222.20744199998444,222.20744199998444,222.69146820000606,None,1,,,222.69204469997203,223.2068261000095,224.2058872000198,224.19014010002138,222.7071078000008,222.7071078000008,,,,,,,,,,,,,,,005,001,2025-04-27_19h59.44.535,Cued GoNogo Task,2024.2.4,59.98764254232577,2025-04-27 19h59.54.864020 +0200,
block/CondBlock1.xlsx,You are about to start a block of type 1 trials.,62,62,0,Go,Go,0.45,0.05,0.2,space,blue,horizontal,space,2.726087200047914,None,space,1,0.3334841000032611,None,,,,0,0,0,0,0,62,62,62,224.2058872000198,,,,,,,,,,,,,,,,224.1904729999951,224.2058872000198,224.90519899997162,224.90519899997162,225.40481550002005,225.38889599998947,225.3894967000233,225.40481550002005,225.85458220000146,226.0543037999887,226.0543037999887,226.38987770001404,space,1,0.3334841000032611,None,226.39359809999587,226.90368470002431,227.903023699997,227.88690699997824,,,,,,,,,,,,,,,,,005,001,2025-04-27_19h59.44.535,Cued GoNogo Task,2024.2.4,59.98764254232577,2025-04-27 19h59.54.864020 +0200,
block/CondBlock1.xlsx,You are about to start a block of type 1 trials.,63,63,0,Go,Go,0.1,0.05,0.2,space,green,horizontal,space,2.726087200047914,None,space,1,0.28990520001389086,None,,,,0,0,0,0,0,63,63,63,227.903023699997,,,,,,,,,,,,,,,,227.8871763999923,227.903023699997,228.6023189999978,228.6023189999978,229.1020185999805,229.08595029998105,229.08649850002257,229.1020185999805,229.20181639998918,229.40149209997617,229.40149209997617,229.70221909997053,space,1,0.28990520001389086,None,229.70556339999894,230.2174498999957,231.2168576999684,231.2010384000023,,,,,,,,,,,,,,,,,005,001,2025-04-27_19h59.44.535,Cued GoNogo Task,2024.2.4,59.98764254232577,2025-04-27 19h59.54.864020 +0200,
block/CondBlock1.xlsx,You are about to start a block of type 1 trials.,64,64,0,Go,Go,0.19,0.05,0.2,space,blue,horizontal,space,2.726087200047914,None,space,1,0.21292560000438243,None,,,,0,0,0,0,0,64,64,64,231.2168576999684,,,,,,,,,,,,,,,,231.20142330002273,231.2168576999684,231.91642449999927,231.91642449999927,232.41553449997446,232.39984849997563,232.40053919999627,232.41553449997446,232.61550379998516,232.798857900023,232.798857900023,233.01689049997367,space,1,0.21292560000438243,None,233.02151629998116,233.53143329999875,234.530841699976,234.51525429997128,,,,,,,,,,,,,,,,,005,001,2025-04-27_19h59.44.535,Cued GoNogo Task,2024.2.4,59.98764254232577,2025-04-27 19h59.54.864020 +0200,
block/CondBlock1.xlsx,You are about to start a block of type 1 trials.,65,65,0,Go,Go,0.21,0.2,0.05,space,blue,vertical,space,2.726087200047914,None,space,1,0.2657292999792844,None,,,,0,0,0,0,0,65,65,65,234.530841699976,,,,,,,,,,,,,,,,234.5156443999731,234.530841699976,235.23008309997385,235.23008309997385,235.7296988000162,235.71390660002362,235.7146742999903,235.7296988000162,235.9461699000094,236.12934689997928,236.12934689997928,236.39778050000314,space,1,0.2657292999792844,None,236.40243389998795,236.91197630000534,237.91148770001018,237.895452799974,,,,,,,,,,,,,,,,,005,001,2025-04-27_19h59.44.535,Cued GoNogo Task,2024.2.4,59.98764254232577,2025-04-27 19h59.54.864020 +0200,
block/CondBlock1.xlsx,You are about to start a block of type 1 trials.,66,66,0,Go,Go,0.18,0.05,0.2,space,blue,horizontal,space,2.726087200047914,None,space,1,0.25343140005134046,None,,,,0,0,0,0,0,66,66,66,237.91148770001018,,,,,,,,,,,,,,,,237.89574120001635,237.91148770001018,238.61071540002013,238.61071540002013,239.11026609997498,239.0949460999691,239.0957977999933,239.11026609997498,239.293488299998,239.49326660000952,239.49326660000952,239.7611057999893,space,1,0.25343140005134046,None,239.76500010001473,240.2760712999734,241.27526939997915,241.25935780000873,,,,,,,,,,,,,,,,,005,001,2025-04-27_19h59.44.535,Cued GoNogo Task,2024.2.4,59.98764254232577,2025-04-27 19h59.54.864020 +0200,
block/CondBlock1.xlsx,You are about to start a block of type 1 trials.,67,67,0,Go,Go,0.29,0.2,0.05,space,green,vertical,space,2.726087200047914,None,space,1,0.2941622999496758,None,,,,0,0,0,0,0,67,67,67,241.27526939997915,,,,,,,,,,,,,,,,241.2596522999811,241.27526939997915,241.97459629998775,241.97459629998775,242.47431040002266,242.45826779998606,242.4588664000039,242.47431040002266,242.77425279997988,242.9570007000002,242.9570007000002,243.25791789998766,space,1,0.2941622999496758,None,243.26218439999502,243.77317040000344,244.7723352999892,244.75627189996885,,,,,,,,,,,,,,,,,005,001,2025-04-27_19h59.44.535,Cued GoNogo Task,2024.2.4,59.98764254232577,2025-04-27 19h59.54.864020 +0200,
block/CondBlock1.xlsx,You are about to start a block of type 1 trials.,68,68,0,NoGo,NoGo,0.24,0.2,0.05,none,blue,vertical,space,2.726087200047914,None,space,0,0.2793322000070475,None,,,,0,0,0,0,0,68,68,68,244.7723352999892,,,,,,,,,,,,,,,,244.75651440001093,244.7723352999892,245.47166470001685,245.47166470001685,245.97120049997466,245.9557362999767,245.95665940002073,245.97120049997466,246.22100199997658,246.40428319998318,246.40428319998318,246.68845459999284,space,0,0.2793322000070475,None,246.69313640001928,247.20362759998534,248.20266640000045,248.18658189999405,,,,,,,,,,,,,,,,,005,001,2025-04-27_19h59.44.535,Cued GoNogo Task,2024.2.4,59.98764254232577,2025-04-27 19h59.54.864020 +0200,
block/CondBlock1.xlsx,You are about to start a block of type 1 trials.,69,69,0,Go,Go,0.27,0.05,0.2,space,green,horizontal,space,2.726087200047914,None,space,1,0.3514871000079438,None,,,,0,0,0,0,0,69,69,69,248.20266640000045,,,,,,,,,,,,,,,,248.18678240000736,248.20266640000045,248.90232449996984,248.90232449996984,249.4017206999706,249.38589450001018,249.38653750001686,249.4017206999706,249.68496480002068,249.8679306000122,249.8679306000122,250.2358271999983,space,1,0.3514871000079438,None,250.2400389999966,250.75067149999086,251.74973679997493,251.73398580000503,,,,,,,,,,,,,,,,,005,001,2025-04-27_19h59.44.535,Cued GoNogo Task,2024.2.4,59.98764254232577,2025-04-27 19h59.54.864020 +0200,
block/CondBlock1.xlsx,You are about to start a block of type 1 trials.,70,70,0,Go,Go,0.25,0.2,0.05,space,green,vertical,space,2.726087200047914,None,space,1,0.21281549998093396,None,,,,0,0,0,0,0,70,70,70,251.74973679997493,,,,,,,,,,,,,,,,251.73425069998484,251.74973679997493,252.4493141999701,252.4493141999701,252.9488787999726,252.9332359000109,252.93421099998523,252.9488787999726,253.19875450001564,253.39854580000974,253.39854580000974,253.61610789998667,space,1,0.21281549998093396,None,253.61962179996772,254.13133150001522,255.13048569997773,255.1146657000063,,,,,,,,,,,,,,,,,005,001,2025-04-27_19h59.44.535,Cued GoNogo Task,2024.2.4,59.98764254232577,2025-04-27 19h59.54.864020 +0200,
block/CondBlock1.xlsx,You are about to start a block of type 1 trials.,71,71,0,Go,Go,0.28,0.05,0.2,space,green,horizontal,space,2.726087200047914,None,space,1,0.25585509999655187,None,,,,0,0,0,0,0,71,71,71,255.13048569997773,,,,,,,,,,,,,,,,255.11493109998992,255.13048569997773,255.82975480001187,255.82975480001187,256.3294004999916,256.3141342999879,256.31517409998924,256.3294004999916,256.61273439996876,256.79545630002394,256.79545630002394,257.0633705999935,space,1,0.25585509999655187,None,257.06724389997544,257.5785339999711,258.5774609000073,258.56159459997434,,,,,,,,,,,,,,,,,005,001,2025-04-27_19h59.44.535,Cued GoNogo Task,2024.2.4,59.98764254232577,2025-04-27 19h59.54.864020 +0200,
block/CondBlock1.xlsx,You are about to start a block of type 1 trials.,72,72,0,Go,Go,0.14,0.05,0.2,space,blue,horizontal,space,2.726087200047914,None,space,1,0.3581828000023961,None,,,,0,0,0,0,0,72,72,72,258.5774609000073,,,,,,,,,,,,,,,,258.56187089998275,258.5774609000073,259.27692530001514,259.27692530001514,259.7771129999892,259.76056570000947,259.76108630001545,259.7771129999892,259.9265749999904,260.1096056000097,260.1096056000097,260.4777751999791,space,1,0.3581828000023961,None,260.4826025000075,260.9924128999701,261.99136510002427,261.9760816000053,,,,,,,,,,,,,,,,,005,001,2025-04-27_19h59.44.535,Cued GoNogo Task,2024.2.4,59.98764254232577,2025-04-27 19h59.54.864020 +0200,
block/CondBlock1.xlsx,You are about to start a block of type 1 trials.,73,73,0,Go,Go,0.11,0.05,0.2,space,blue,horizontal,space,2.726087200047914,None,space,1,0.25827819999540225,None,,,,0,0,0,0,0,73,73,73,261.99136510002427,,,,,,,,,,,,,,,,261.97637200000463,261.99136510002427,262.6908913999796,262.6908913999796,263.1905306999688,263.17447710002307,263.17505720001645,263.1905306999688,263.3070813000086,263.49011209997116,263.49011209997116,263.7580554999877,space,1,0.25827819999540225,None,263.7623794999672,264.27311989996815,265.2720442999853,265.25622219999786,,,,,,,,,,,,,,,,,005,001,2025-04-27_19h59.44.535,Cued GoNogo Task,2024.2.4,59.98764254232577,2025-04-27 19h59.54.864020 +0200,
block/CondBlock1.xlsx,You are about to start a block of type 1 trials.,74,74,0,Go,Go,0.22,0.2,0.05,space,blue,vertical,space,2.726087200047914,None,space,1,0.21126400004141033,None,,,,0,0,0,0,0,74,74,74,265.2720442999853,,,,,,,,,,,,,,,,265.2565172999748,265.2720442999853,265.9715913999826,265.9715913999826,266.4712401999859,266.4550089999684,266.4555961000151,266.4712401999859,266.70420069998363,266.88741869997466,266.88741869997466,267.1049848999828,space,1,0.21126400004141033,None,267.10853710002266,267.6201336000231,268.6194715999882,268.6033279999974,,,,,,,,,,,,,,,,,005,001,2025-04-27_19h59.44.535,Cued GoNogo Task,2024.2.4,59.98764254232577,2025-04-27 19h59.54.864020 +0200,
block/CondBlock1.xlsx,You are about to start a block of type 1 trials.,75,75,0,Go,Go,0.26,0.05,0.2,space,blue,horizontal,space,2.726087200047914,None,space,1,0.2471627999912016,None,,,,0,0,0,0,0,75,75,75,268.6194715999882,,,,,,,,,,,,,,,,268.6037233999814,268.6194715999882,269.31864130002214,269.31864130002214,269.8184010999976,269.8023234999855,269.8029395000194,269.8184010999976,270.08481680002296,270.2680180000025,270.2680180000025,270.51898679998703,space,1,0.2471627999912016,None,270.5228599999682,271.03419239999494,272.0330802000244,272.0175645999843,,,,,,,,,,,,,,,,,005,001,2025-04-27_19h59.44.535,Cued GoNogo Task,2024.2.4,59.98764254232577,2025-04-27 19h59.54.864020 +0200,
block/CondBlock1.xlsx,You are about to start a block of type 1 trials.,76,76,0,Go,Go,0.14,0.2,0.05,space,green,vertical,space,2.726087200047914,None,space,1,0.3022056999616325,None,,,,0,0,0,0,0,76,76,76,272.0330802000244,,,,,,,,,,,,,,,,272.01790350000374,272.0330802000244,272.73243229999207,272.73243229999207,273.23219349997817,273.2161995000206,273.2168654999696,273.23219349997817,273.38210370001616,273.5652515999973,273.5652515999973,273.88272539997706,space,1,0.3022056999616325,None,273.8873845000053,274.39811989996815,275.3970516999834,275.38122250000015,,,,,,,,,,,,,,,,,005,001,2025-04-27_19h59.44.535,Cued GoNogo Task,2024.2.4,59.98764254232577,2025-04-27 19h59.54.864020 +0200,
block/CondBlock1.xlsx,You are about to start a block of type 1 trials.,77,77,0,Go,Go,0.18,0.05,0.2,space,green,horizontal,space,2.726087200047914,None,space,1,0.216844700044021,None,,,,0,0,0,0,0,77,77,77,275.3970516999834,,,,,,,,,,,,,,,,275.3815289000049,275.3970516999834,276.09648249996826,276.09648249996826,276.5961147000198,276.5797362999874,276.5801342999912,276.5961147000198,276.7791955000139,276.9625812000013,276.9625812000013,277.18181979999645,space,1,0.216844700044021,None,277.18555629998446,277.69511729996884,278.6942956999992,278.67811540002003,,,,,,,,,,,,,,,,,005,001,2025-04-27_19h59.44.535,Cued GoNogo Task,2024.2.4,59.98764254232577,2025-04-27 19h59.54.864020 +0200,
block/CondBlock1.xlsx,You are about to start a block of type 1 trials.,78,78,0,NoGo,NoGo,0.27,0.05,0.2,none,blue,horizontal,space,2.726087200047914,None,space,0,0.20285709999734536,None,,,,0,0,0,0,0,78,78,78,278.6942956999992,,,,,,,,,,,,,,,,278.6783462999738,278.6942956999992,279.39380119997077,279.39380119997077,279.8934622000088,279.87753280001925,279.87825030001113,279.8934622000088,280.17638580000494,280.3598497000057,280.3598497000057,280.5770867000101,space,0,0.20285709999734536,None,280.58207299996866,281.0925735000055,282.0915879000095,282.0762544000172,,,,,,,,,,,,,,,,,005,001,2025-04-27_19h59.44.535,Cued GoNogo Task,2024.2.4,59.98764254232577,2025-04-27 19h59.54.864020 +0200,
block/CondBlock1.xlsx,You are about to start a block of type 1 trials.,79,79,0,NoGo,NoGo,0.26,0.2,0.05,none,blue,vertical,space,2.726087200047914,None,None,1,,,,,,0,0,0,0,0,79,79,79,282.0915879000095,,,,,,,,,,,,,,,,282.0766491999966,282.0915879000095,282.79107500001555,282.79107500001555,283.29080179997254,283.2744835999911,283.27506349998293,283.29080179997254,283.55719780002255,283.740179800021,283.740179800021,284.22404649999226,None,1,,,284.22710849996656,284.73932150000473,285.7385070999735,285.7226589000202,284.2397178999963,284.2397178999963,,,,,,,,,,,,,,,005,001,2025-04-27_19h59.44.535,Cued GoNogo Task,2024.2.4,59.98764254232577,2025-04-27 19h59.54.864020 +0200,
block/CondBlock1.xlsx,You are about to start a block of type 1 trials.,80,80,0,Go,Go,0.22,0.2,0.05,space,green,vertical,space,2.726087200047914,None,space,1,0.20900500001152977,None,,,,0,0,0,0,0,80,80,80,285.7385070999735,,,,,,,,,,,,,,,,285.72301879996667,285.7385070999735,286.437984899967,286.437984899967,286.93756689998554,286.921604299976,286.92227460001595,286.93756689998554,287.1708539999672,287.35392189997947,287.35392189997947,287.5714785999735,space,1,0.20900500001152977,None,287.5754690999747,288.0865982999676,289.08596559998114,289.0701355999918,,,,,,,,,,,,,,,,,005,001,2025-04-27_19h59.44.535,Cued GoNogo Task,2024.2.4,59.98764254232577,2025-04-27 19h59.54.864020 +0200,
block/CondBlock1.xlsx,You are about to start a block of type 1 trials.,81,81,0,Go,Go,0.5,0.2,0.05,space,green,vertical,space,2.726087200047914,None,space,1,0.37021920003462583,None,,,,0,0,0,0,0,81,81,81,289.08596559998114,,,,,,,,,,,,,,,,289.07045990001643,289.08596559998114,289.7851848999853,289.7851848999853,290.2849331999896,290.26882120000664,290.26940849999664,290.2849331999896,290.7845011000172,290.9843600000022,290.9843600000022,291.36848689999897,space,1,0.37021920003462583,None,291.37154869997175,291.88355099997716,292.8826702000224,292.8667558999732,,,,,,,,,,,,,,,,,005,001,2025-04-27_19h59.44.535,Cued GoNogo Task,2024.2.4,59.98764254232577,2025-04-27 19h59.54.864020 +0200,
block/CondBlock1.xlsx,You are about to start a block of type 1 trials.,82,82,0,Go,Go,0.43,0.05,0.2,space,green,horizontal,space,2.726087200047914,None,space,1,0.31347370002185926,None,,,,0,0,0,0,0,82,82,82,292.8826702000224,,,,,,,,,,,,,,,,292.86700209998526,292.8826702000224,293.5820626000059,293.5820626000059,294.08183619997,294.065851100022,294.06647929997416,294.08183619997,294.5147337000235,294.6979224999668,294.6979224999668,295.01565489999484,space,1,0.31347370002185926,None,295.0198900999967,295.5304523999803,296.52969719999237,296.5139809999964,,,,,,,,,,,,,,,,,005,001,2025-04-27_19h59.44.535,Cued GoNogo Task,2024.2.4,59.98764254232577,2025-04-27 19h59.54.864020 +0200,
block/CondBlock1.xlsx,You are about to start a block of type 1 trials.,83,83,0,Go,Go,0.25,0.2,0.05,space,green,vertical,space,2.726087200047914,None,space,1,0.36856560001615435,None,,,,0,0,0,0,0,83,83,83,296.52969719999237,,,,,,,,,,,,,,,,296.514306499972,296.52969719999237,297.22914710000623,297.22914710000623,297.72879799996736,297.7132569999667,297.7142800000147,297.72879799996736,297.9783527000109,298.17835619999096,298.17835619999096,298.5634966000216,space,1,0.36856560001615435,None,298.5696240999969,299.07759549998445,300.0770551000023,300.06095479999203,,,,,,,,,,,,,,,,,005,001,2025-04-27_19h59.44.535,Cued GoNogo Task,2024.2.4,59.98764254232577,2025-04-27 19h59.54.864020 +0200,
block/CondBlock1.xlsx,You are about to start a block of type 1 trials.,84,84,0,NoGo,NoGo,0.14,0.2,0.05,none,green,vertical,space,2.726087200047914,None,space,0,0.2017362000187859,None,,,,0,0,0,0,0,84,84,84,300.0770551000023,,,,,,,,,,,,,,,,300.0612135999836,300.0770551000023,300.7762161999708,300.7762161999708,301.2756741999765,301.2601084000198,301.2608123999671,301.2756741999765,301.42561450001085,301.60899889998836,301.60899889998836,301.8261873999727,space,0,0.2017362000187859,None,301.83111909998115,302.3415201000171,303.3408158000093,303.3250114999828,,,,,,,,,,,,,,,,,005,001,2025-04-27_19h59.44.535,Cued GoNogo Task,2024.2.4,59.98764254232577,2025-04-27 19h59.54.864020 +0200,
block/CondBlock1.xlsx,You are about to start a block of type 1 trials.,85,85,0,Go,Go,0.2,0.05,0.2,space,blue,horizontal,space,2.726087200047914,None,space,1,0.20169460005126894,None,,,,0,0,0,0,0,85,85,85,303.3408158000093,,,,,,,,,,,,,,,,303.3253382999683,303.3408158000093,304.04027789999964,304.04027789999964,304.5399285000167,304.5240451999707,304.5249389000237,304.5399285000167,304.7396344000008,304.9396642000065,304.9396642000065,305.15724779997254,space,1,0.20169460005126894,None,305.1621864999761,305.67211729998235,306.671448100009,306.6554908999824,,,,,,,,,,,,,,,,,005,001,2025-04-27_19h59.44.535,Cued GoNogo Task,2024.2.4,59.98764254232577,2025-04-27 19h59.54.864020 +0200,
block/CondBlock1.xlsx,You are about to start a block of type 1 trials.,86,86,0,Go,Go,0.16,0.2,0.05,space,blue,vertical,space,2.726087200047914,None,space,1,0.23916179995285347,None,,,,0,0,0,0,0,86,86,86,306.671448100009,,,,,,,,,,,,,,,,306.65577249997295,306.671448100009,307.3707437000121,307.3707437000121,307.87047779996647,307.85443040000973,307.8550782999955,307.87047779996647,308.03700579999713,308.22004089999245,308.22004089999245,308.47071799996775,space,1,0.23916179995285347,None,308.4736136000138,308.9862219999777,309.9852249000105,309.96942619996844,,,,,,,,,,,,,,,,,005,001,2025-04-27_19h59.44.535,Cued GoNogo Task,2024.2.4,59.98764254232577,2025-04-27 19h59.54.864020 +0200,
block/CondBlock1.xlsx,You are about to start a block of type 1 trials.,87,87,0,Go,Go,0.41,0.2,0.05,space,green,vertical,space,2.726087200047914,None,space,1,0.16328779998002574,None,,,,0,0,0,0,0,87,87,87,309.9852249000105,,,,,,,,,,,,,,,,309.96973100001924,309.9852249000105,310.68468960002065,310.68468960002065,311.18431129999226,311.16829280002275,311.1689025000087,311.18431129999226,311.6005438999855,311.78385579999303,311.78385579999303,311.9515889000031,space,1,0.16328779998002574,None,311.95551709999563,312.4666366999736,313.4656675999868,313.4497671999852,,,,,,,,,,,,,,,,,005,001,2025-04-27_19h59.44.535,Cued GoNogo Task,2024.2.4,59.98764254232577,2025-04-27 19h59.54.864020 +0200,
block/CondBlock1.xlsx,You are about to start a block of type 1 trials.,88,88,0,NoGo,NoGo,0.15,0.2,0.05,none,green,vertical,space,2.726087200047914,None,None,1,,,,,,0,0,0,0,0,88,88,88,313.4656675999868,,,,,,,,,,,,,,,,313.4499888999853,313.4656675999868,314.16567810002016,314.16567810002016,314.6648026999901,314.64937499997905,314.65022339997813,314.6648026999901,314.81468459998723,315.0144528999808,315.0144528999808,315.49816939997254,None,1,,,315.5006255999906,316.01358640001854,317.01274370000465,316.9966556999716,315.51393539999845,315.51393539999845,,,,,,,,,,,,,,,005,001,2025-04-27_19h59.44.535,Cued GoNogo Task,2024.2.4,59.98764254232577,2025-04-27 19h59.54.864020 +0200,
block/CondBlock1.xlsx,You are about to start a block of type 1 trials.,89,89,0,Go,Go,0.24,0.05,0.2,space,blue,horizontal,space,2.726087200047914,None,space,1,0.27936839999165386,None,,,,0,0,0,0,0,89,89,89,317.01274370000465,,,,,,,,,,,,,,,,316.9969001999707,317.01274370000465,317.7124025999801,317.7124025999801,318.21200260001933,318.19623760000104,318.19715419999557,318.21200260001933,318.46171589998994,318.6448338999762,318.6448338999762,318.92953059996944,space,1,0.27936839999165386,None,318.9341063000029,319.4441526000155,320.44337300001644,320.4276285999804,,,,,,,,,,,,,,,,,005,001,2025-04-27_19h59.44.535,Cued GoNogo Task,2024.2.4,59.98764254232577,2025-04-27 19h59.54.864020 +0200,
block/CondBlock1.xlsx,You are about to start a block of type 1 trials.,90,90,0,Go,Go,0.25,0.2,0.05,space,blue,vertical,space,2.726087200047914,None,space,1,0.24009169999044389,None,,,,0,0,0,0,0,90,90,90,320.44337300001644,,,,,,,,,,,,,,,,320.42791919998126,320.44337300001644,321.14278009999543,321.14278009999543,321.6423332999693,321.626905800018,321.62760649999836,321.6423332999693,321.89208919997327,322.0920391000109,322.0920391000109,322.3433106999728,space,1,0.24009169999044389,None,322.3473941999837,322.8580169000197,323.8571150000207,323.84121619997313,,,,,,,,,,,,,,,,,005,001,2025-04-27_19h59.44.535,Cued GoNogo Task,2024.2.4,59.98764254232577,2025-04-27 19h59.54.864020 +0200,
block/CondBlock1.xlsx,You are about to start a block of type 1 trials.,91,91,0,Go,Go,0.26,0.05,0.2,space,green,horizontal,space,2.726087200047914,None,space,1,0.2007549999980256,None,,,,0,0,0,0,0,91,91,91,323.8571150000207,,,,,,,,,,,,,,,,323.8414610999753,323.8571150000207,324.55656860000454,324.55656860000454,325.0563473000075,325.04052699997555,325.04126019997057,325.0563473000075,325.32268589996966,325.5058720000088,325.5058720000088,325.72371900000144,space,1,0.2007549999980256,None,325.7281883999822,326.23863089998486,327.2377355999779,327.22202980000293,,,,,,,,,,,,,,,,,005,001,2025-04-27_19h59.44.535,Cued GoNogo Task,2024.2.4,59.98764254232577,2025-04-27 19h59.54.864020 +0200,
block/CondBlock1.xlsx,You are about to start a block of type 1 trials.,92,92,0,NoGo,NoGo,0.44,0.2,0.05,none,blue,vertical,space,2.726087200047914,None,space,0,0.1899085000040941,None,,,,0,0,0,0,0,92,92,92,327.2377355999779,,,,,,,,,,,,,,,,327.2222942999797,327.2377355999779,327.93713009997737,327.93713009997737,328.4368006999721,328.42050880001625,328.42096099996706,328.4368006999721,328.88662010000553,329.06970900000306,329.06970900000306,329.2709112999728,space,0,0.1899085000040941,None,329.27738970000064,329.7856573999743,330.78498799999943,330.7689699999755,,,,,,,,,,,,,,,,,005,001,2025-04-27_19h59.44.535,Cued GoNogo Task,2024.2.4,59.98764254232577,2025-04-27 19h59.54.864020 +0200,
block/CondBlock1.xlsx,You are about to start a block of type 1 trials.,93,93,0,Go,Go,0.13,0.2,0.05,space,green,vertical,space,2.726087200047914,None,space,1,0.2795246000168845,None,,,,0,0,0,0,0,93,93,93,330.78498799999943,,,,,,,,,,,,,,,,330.76924240001244,330.78498799999943,331.48424139997223,331.48424139997223,331.9838010999956,331.9678513999679,331.96849250001833,331.9838010999956,332.11712549999356,332.3002004000009,332.3002004000009,332.584873099986,space,1,0.2795246000168845,None,332.58840900001815,333.09955669997726,334.09896450000815,334.0835080000106,,,,,,,,,,,,,,,,,005,001,2025-04-27_19h59.44.535,Cued GoNogo Task,2024.2.4,59.98764254232577,2025-04-27 19h59.54.864020 +0200,
block/CondBlock1.xlsx,You are about to start a block of type 1 trials.,94,94,0,Go,Go,0.44,0.05,0.2,space,blue,horizontal,space,2.726087200047914,None,space,1,0.1522541000158526,None,,,,0,0,0,0,0,94,94,94,334.09896450000815,,,,,,,,,,,,,,,,334.083921500016,334.09896450000815,334.79811259999406,334.79811259999406,335.29771369998343,335.28204079996794,335.2827285999665,335.29771369998343,335.74754479998956,335.93077400000766,335.93077400000766,336.09877609997056,space,1,0.1522541000158526,None,336.10344510001596,336.61367260001134,337.61258979997365,337.596961800009,,,,,,,,,,,,,,,,,005,001,2025-04-27_19h59.44.535,Cued GoNogo Task,2024.2.4,59.98764254232577,2025-04-27 19h59.54.864020 +0200,
block/CondBlock1.xlsx,You are about to start a block of type 1 trials.,95,95,0,Go,Go,0.15,0.2,0.05,space,green,vertical,space,2.726087200047914,None,space,1,0.25745780003489926,None,,,,0,0,0,0,0,95,95,95,337.61258979997365,,,,,,,,,,,,,,,,337.59735060000094,337.61258979997365,338.312231399992,338.312231399992,338.811612599995,338.7958748000092,338.79652969999006,338.811612599995,338.9615394999855,339.1612732000067,339.1612732000067,339.42861050000647,space,1,0.25745780003489926,None,339.4317107999814,339.94409070000984,340.94324719998986,340.9274781999993,,,,,,,,,,,,,,,,,005,001,2025-04-27_19h59.44.535,Cued GoNogo Task,2024.2.4,59.98764254232577,2025-04-27 19h59.54.864020 +0200,
block/CondBlock1.xlsx,You are about to start a block of type 1 trials.,96,96,0,Go,Go,0.49,0.2,0.05,space,green,vertical,space,2.726087200047914,None,None,0,,,,,,0,0,0,0,0,96,96,96,340.94324719998986,,,,,,,,,,,,,,,,340.9278475000174,340.94324719998986,341.64231440000003,341.64231440000003,342.1444056999753,342.12891179998405,342.1293082999764,342.1444056999753,342.6444158999948,342.82692650001263,342.82692650001263,343.3107713999925,None,0,,,343.315811700013,343.9590204000124,,344.82354910002323,343.32663490000414,343.32663490000414,,,,,,,,,,,,,,,005,001,2025-04-27_19h59.44.535,Cued GoNogo Task,2024.2.4,59.98764254232577,2025-04-27 19h59.54.864020 +0200,
block/CondBlock1.xlsx,You are about to start a block of type 1 trials.,97,97,0,Go,Go,0.11,0.2,0.05,space,blue,vertical,space,2.726087200047914,None,space,1,0.22532979998504743,None,,,,0,0,0,0,0,97,97,97,344.83972180000274,,,,,,,,,,,,,,,,344.8240807999973,344.83972180000274,345.52275200001895,345.53911539999535,346.0223569999798,346.006140100013,346.00670909998007,346.0223569999798,346.13885930000106,346.32190280000214,346.32190280000214,346.55609169998206,space,1,0.22532979998504743,None,346.55933379998896,347.071639199974,348.0705885000061,348.0552332000225,,,,,,,,,,,,,,,,,005,001,2025-04-27_19h59.44.535,Cued GoNogo Task,2024.2.4,59.98764254232577,2025-04-27 19h59.54.864020 +0200,
block/CondBlock1.xlsx,You are about to start a block of type 1 trials.,98,98,0,Go,Go,0.26,0.05,0.2,space,green,horizontal,space,2.726087200047914,None,space,1,0.37235910003073514,None,,,,0,0,0,0,0,98,98,98,348.0705885000061,,,,,,,,,,,,,,,,348.05562320002355,348.0705885000061,348.77002300001914,348.77002300001914,349.26975420000963,349.2538532000035,349.2545947000035,349.26975420000963,349.53613259998383,349.7194824999897,349.7194824999897,350.1035106999916,space,1,0.37235910003073514,None,350.1072945999913,350.61848329997156,351.61772400001064,351.6017314000055,,,,,,,,,,,,,,,,,005,001,2025-04-27_19h59.44.535,Cued GoNogo Task,2024.2.4,59.98764254232577,2025-04-27 19h59.54.864020 +0200,
block/CondBlock1.xlsx,You are about to start a block of type 1 trials.,99,99,0,Go,Go,0.28,0.05,0.2,space,green,horizontal,space,2.726087200047914,None,space,1,0.22465360001660883,None,,,,0,0,0,0,0,99,99,99,351.61772400001064,,,,,,,,,,,,,,,,351.601945900009,351.61772400001064,352.31729689997155,352.31729689997155,352.81672489998164,352.80100289999973,352.80170189996716,352.81672489998164,353.0999221999664,353.2831583999796,353.2831583999796,353.5176566999871,space,1,0.22465360001660883,None,353.5218850999954,354.03211089997785,355.0317939000088,355.0157160999952,,,,,,,,,,,,,,,,,005,001,2025-04-27_19h59.44.535,Cued GoNogo Task,2024.2.4,59.98764254232577,2025-04-27 19h59.54.864020 +0200,
block/CondBlock1.xlsx,You are about to start a block of type 1 trials.,0,0,0,,,,,,,,,space,2.726087200047914,None,,,,,space,2.3561406999942847,None,0,0,0,0,,,,,,,,,,,,,,,,,,,,,,,,,,,,,,,,,,,,,,,,,,,355.02963750000345,355.0317939000088,355.0317939000088,357.3977399999858,space,2.3561406999942847,None,,,,,,,,005,001,2025-04-27_19h59.44.535,Cued GoNogo Task,2024.2.4,59.98764254232577,2025-04-27 19h59.54.864020 +0200,
block/CondBlock2.xlsx,You are about to start a block of type 2 trials.,0,0,0,Go,Go,0.18,0.05,0.2,space,green,horizontal,space,320.0796785999555,None,space,1,0.30557090003276244,None,,,,0,1,1,1,0,0,0,0,677.5210396000184,,,,,,,,,357.40269319998333,357.4128877000185,357.4128877000185,677.5011942000128,space,320.0796785999555,None,677.5189240999753,677.5210396000184,678.2158185999724,678.2326613999903,678.7153493000078,678.6998717000242,678.7010335000232,678.7153493000078,678.8986297000083,679.081881799968,679.081881799968,679.3998497999855,space,1,0.30557090003276244,None,679.4048997000209,679.9144772000145,680.9134578999947,680.8977908000234,,,,,,,,,,,,,,,,,005,001,2025-04-27_19h59.44.535,Cued GoNogo Task,2024.2.4,59.98764254232577,2025-04-27 19h59.54.864020 +0200,
block/CondBlock2.xlsx,You are about to start a block of type 2 trials.,1,1,0,Go,Go,0.2,0.2,0.05,space,green,vertical,space,320.0796785999555,None,space,1,0.24278050003340468,None,,,,0,1,1,1,0,1,1,1,680.9134578999947,,,,,,,,,,,,,,,,680.8980692999903,680.9134578999947,681.6129983999999,681.6129983999999,682.1125910999835,682.096759499982,682.0975065000239,682.1125910999835,682.3123940000078,682.5122396000079,682.5122396000079,682.762988100003,space,1,0.24278050003340468,None,682.7665028999909,683.2781770000001,684.277508899977,684.2614116999903,,,,,,,,,,,,,,,,,005,001,2025-04-27_19h59.44.535,Cued GoNogo Task,2024.2.4,59.98764254232577,2025-04-27 19h59.54.864020 +0200,
block/CondBlock2.xlsx,You are about to start a block of type 2 trials.,2,2,0,Go,Go,0.22,0.05,0.2,space,blue,horizontal,space,320.0796785999555,None,space,1,0.3268520999699831,None,,,,0,1,1,1,0,2,2,2,684.277508899977,,,,,,,,,,,,,,,,684.2617016999866,684.277508899977,684.976966999995,684.976966999995,685.4764801000129,685.460413200024,685.460956099967,685.4764801000129,685.7096120999777,685.892955999996,685.892955999996,686.2276555999997,space,1,0.3268520999699831,None,686.2322515000124,686.7421808000072,687.7414135999861,687.7258336999803,,,,,,,,,,,,,,,,,005,001,2025-04-27_19h59.44.535,Cued GoNogo Task,2024.2.4,59.98764254232577,2025-04-27 19h59.54.864020 +0200,
block/CondBlock2.xlsx,You are about to start a block of type 2 trials.,3,3,0,Go,Go,0.14,0.05,0.2,space,green,horizontal,space,320.0796785999555,None,space,1,0.3941443999647163,None,,,,0,1,1,1,0,3,3,3,687.7414135999861,,,,,,,,,,,,,,,,687.726229300024,687.7414135999861,688.4406941999914,688.4406941999914,688.9402269999846,688.9242917000083,688.9249651000137,688.9402269999846,689.0902178999968,689.2731680999859,689.2731680999859,689.6739973999793,space,1,0.3941443999647163,None,689.6782714999863,690.1893010999775,691.1883573000086,691.172870200011,,,,,,,,,,,,,,,,,005,001,2025-04-27_19h59.44.535,Cued GoNogo Task,2024.2.4,59.98764254232577,2025-04-27 19h59.54.864020 +0200,
block/CondBlock2.xlsx,You are about to start a block of type 2 trials.,4,4,0,Go,Go,0.26,0.05,0.2,space,blue,horizontal,space,320.0796785999555,None,space,1,0.3258070999872871,None,,,,0,1,1,1,0,4,4,4,691.1883573000086,,,,,,,,,,,,,,,,691.1733423999976,691.1883573000086,691.888013400021,691.888013400021,692.3873373999959,692.3715174000245,692.3722267000121,692.3873373999959,692.6539254999952,692.8370756999939,692.8370756999939,693.1710948999971,space,1,0.3258070999872871,None,693.1746597000165,693.6863545000087,694.6854393999674,694.6696582000004,,,,,,,,,,,,,,,,,005,001,2025-04-27_19h59.44.535,Cued GoNogo Task,2024.2.4,59.98764254232577,2025-04-27 19h59.54.864020 +0200,
block/CondBlock2.xlsx,You are about to start a block of type 2 trials.,5,5,0,Go,Go,0.1,0.05,0.2,space,blue,horizontal,space,320.0796785999555,None,space,1,0.259839300008025,None,,,,0,1,1,1,0,5,5,5,694.6854393999674,,,,,,,,,,,,,,,,694.6699211000232,694.6854393999674,695.3849735999829,695.3849735999829,695.8847597999847,695.8690205999883,695.8696617999813,695.8847597999847,695.9844529000111,696.1841769000166,696.1841769000166,696.4515603000182,space,1,0.259839300008025,None,696.4546631000121,696.9671611000085,697.966060900013,697.9502264999901,,,,,,,,,,,,,,,,,005,001,2025-04-27_19h59.44.535,Cued GoNogo Task,2024.2.4,59.98764254232577,2025-04-27 19h59.54.864020 +0200,
block/CondBlock2.xlsx,You are about to start a block of type 2 trials.,6,6,0,NoGo,NoGo,0.3,0.2,0.05,none,green,vertical,space,320.0796785999555,None,None,1,,,,,,0,1,1,1,0,6,6,6,697.966060900013,,,,,,,,,,,,,,,,697.9504846999771,697.966060900013,698.6656255999696,698.6656255999696,699.1652573000174,699.1494717000169,699.1501445000176,699.1652573000174,699.4648591000005,699.6647478999803,699.6647478999803,700.1485226000077,None,1,,,700.1514585000114,700.663985799998,701.6630568999681,701.6470575999701,700.1642371999915,700.1642371999915,,,,,,,,,,,,,,,005,001,2025-04-27_19h59.44.535,Cued GoNogo Task,2024.2.4,59.98764254232577,2025-04-27 19h59.54.864020 +0200,
block/CondBlock2.xlsx,You are about to start a block of type 2 trials.,7,7,0,NoGo,NoGo,0.14,0.05,0.2,none,blue,horizontal,space,320.0796785999555,None,None,1,,,,,,0,1,1,1,0,7,7,7,701.6630568999681,,,,,,,,,,,,,,,,701.6473257999751,701.6630568999681,702.3626488000154,702.3626488000154,702.8622953000013,702.8460731999949,702.8467012000037,702.8622953000013,703.0120743999723,703.1950571999769,703.1950571999769,703.6791959999828,None,1,,,703.6797730000108,704.1944887000136,705.1935548000038,705.1777977999882,703.6947910999879,703.6947910999879,,,,,,,,,,,,,,,005,001,2025-04-27_19h59.44.535,Cued GoNogo Task,2024.2.4,59.98764254232577,2025-04-27 19h59.54.864020 +0200,
block/CondBlock2.xlsx,You are about to start a block of type 2 trials.,8,8,0,Go,Go,0.13,0.2,0.05,space,blue,vertical,space,320.0796785999555,None,space,1,0.24686199997086078,None,,,,0,1,1,1,0,8,8,8,705.1935548000038,,,,,,,,,,,,,,,,705.1782325999811,705.1935548000038,705.8930479999981,705.8930479999981,706.3926774999709,706.3769909999683,706.3778622999671,706.3926774999709,706.5258810999803,706.7091639999999,706.7091639999999,706.9603189000045,space,1,0.24686199997086078,None,706.9647653999855,707.4752666999702,708.4739789000014,708.4585977999959,,,,,,,,,,,,,,,,,005,001,2025-04-27_19h59.44.535,Cued GoNogo Task,2024.2.4,59.98764254232577,2025-04-27 19h59.54.864020 +0200,
block/CondBlock2.xlsx,You are about to start a block of type 2 trials.,9,9,0,Go,Go,0.43,0.2,0.05,space,green,vertical,space,320.0796785999555,None,space,1,0.24156749999383464,None,,,,0,1,1,1,0,9,9,9,708.4739789000014,,,,,,,,,,,,,,,,708.4589131000102,708.4739789000014,709.1736792000011,709.1736792000011,709.6732258999837,709.657230700017,709.6578414000105,709.6732258999837,710.1061410999973,710.3060834999778,710.3060834999778,710.5571499000071,space,1,0.24156749999383464,None,710.5617456000182,711.0720279000234,712.0712555000209,712.055527199991,,,,,,,,,,,,,,,,,005,001,2025-04-27_19h59.44.535,Cued GoNogo Task,2024.2.4,59.98764254232577,2025-04-27 19h59.54.864020 +0200,
block/CondBlock2.xlsx,You are about to start a block of type 2 trials.,10,10,0,Go,Go,0.14,0.2,0.05,space,green,vertical,space,320.0796785999555,None,space,1,0.33626499999081716,None,,,,0,1,1,1,0,10,10,10,712.0712555000209,,,,,,,,,,,,,,,,712.0558702999842,712.0712555000209,712.7707188000204,712.7707188000204,713.2703865999938,713.2545049000182,713.2555162999779,713.2703865999938,713.4201819999726,713.6034575999947,713.6034575999947,713.9545606999891,space,1,0.33626499999081716,None,713.9584620000096,714.4690906999749,715.4685286000022,715.4530227999785,,,,,,,,,,,,,,,,,005,001,2025-04-27_19h59.44.535,Cued GoNogo Task,2024.2.4,59.98764254232577,2025-04-27 19h59.54.864020 +0200,
block/CondBlock2.xlsx,You are about to start a block of type 2 trials.,11,11,0,Go,Go,0.27,0.2,0.05,space,green,vertical,space,320.0796785999555,None,space,1,0.36663920001592487,None,,,,0,1,1,1,0,11,11,11,715.4685286000022,,,,,,,,,,,,,,,,715.4533532999922,715.4685286000022,716.1678477000096,716.1678477000096,716.6675771999871,716.6518436999759,716.652727800014,716.6675771999871,716.9506749999709,717.1338243000209,717.1338243000209,717.5027921000146,space,1,0.36663920001592487,None,717.5073625000077,718.016308500024,719.0153548999806,718.9997206999687,,,,,,,,,,,,,,,,,005,001,2025-04-27_19h59.44.535,Cued GoNogo Task,2024.2.4,59.98764254232577,2025-04-27 19h59.54.864020 +0200,
block/CondBlock2.xlsx,You are about to start a block of type 2 trials.,12,12,0,Go,Go,0.3,0.05,0.2,space,green,horizontal,space,320.0796785999555,None,space,1,0.2727613000315614,None,,,,0,1,1,1,0,12,12,12,719.0153548999806,,,,,,,,,,,,,,,,719.000018599967,719.0153548999806,719.7148462000187,719.7148462000187,720.2145183999673,720.1991257999907,720.2001744000008,720.2145183999673,720.5142973000184,720.7140044000116,720.7140044000116,720.9985055999714,space,1,0.2727613000315614,None,721.0023328000098,721.513487899967,722.5127680000151,722.4967799999868,,,,,,,,,,,,,,,,,005,001,2025-04-27_19h59.44.535,Cued GoNogo Task,2024.2.4,59.98764254232577,2025-04-27 19h59.54.864020 +0200,
block/CondBlock2.xlsx,You are about to start a block of type 2 trials.,13,13,0,Go,Go,0.18,0.2,0.05,space,blue,vertical,space,320.0796785999555,None,space,1,0.28480309998849407,None,,,,0,1,1,1,0,13,13,13,722.5127680000151,,,,,,,,,,,,,,,,722.4974143999862,722.5127680000151,723.2120210999856,723.2120210999856,723.7115945999976,723.695738999988,723.6962668999913,723.7115945999976,723.8948369999998,724.0780387999839,724.0780387999839,724.3789951999788,space,1,0.28480309998849407,None,724.3824655999779,724.8941417000024,725.8934371999931,725.877555700019,,,,,,,,,,,,,,,,,005,001,2025-04-27_19h59.44.535,Cued GoNogo Task,2024.2.4,59.98764254232577,2025-04-27 19h59.54.864020 +0200,
block/CondBlock2.xlsx,You are about to start a block of type 2 trials.,14,14,0,Go,Go,0.13,0.2,0.05,space,green,vertical,space,320.0796785999555,None,space,1,0.32224819995462894,None,,,,0,1,1,1,0,14,14,14,725.8934371999931,,,,,,,,,,,,,,,,725.8778703999706,725.8934371999931,726.592698399967,726.592698399967,727.0921052999911,727.0762005000142,727.0768605999765,727.0921052999911,727.2255111999693,727.4084570999839,727.4084570999839,727.7429556999705,space,1,0.32224819995462894,None,727.7468910000171,728.2580252999905,729.2570365999709,729.2411319999956,,,,,,,,,,,,,,,,,005,001,2025-04-27_19h59.44.535,Cued GoNogo Task,2024.2.4,59.98764254232577,2025-04-27 19h59.54.864020 +0200,
block/CondBlock2.xlsx,You are about to start a block of type 2 trials.,15,15,0,Go,Go,0.18,0.2,0.05,space,blue,vertical,space,320.0796785999555,None,space,1,0.3963560000411235,None,,,,0,1,1,1,0,15,15,15,729.2570365999709,,,,,,,,,,,,,,,,729.2413933000062,729.2570365999709,729.956657200004,729.956657200004,730.4559676999925,730.4399133999832,730.4403834000113,730.4559676999925,730.6392500000075,730.8225314000156,730.8225314000156,731.2229600999854,space,1,0.3963560000411235,None,731.2273265999975,731.7384197000065,732.7375040000188,732.721507499984,,,,,,,,,,,,,,,,,005,001,2025-04-27_19h59.44.535,Cued GoNogo Task,2024.2.4,59.98764254232577,2025-04-27 19h59.54.864020 +0200,
block/CondBlock2.xlsx,You are about to start a block of type 2 trials.,16,16,0,Go,Go,0.24,0.2,0.05,space,green,vertical,space,320.0796785999555,None,space,1,0.20167669997317716,None,,,,0,1,1,1,0,16,16,16,732.7375040000188,,,,,,,,,,,,,,,,732.7217908999883,732.7375040000188,733.4368194999988,733.4368194999988,733.9364333999692,733.9209224000224,733.921545899997,733.9364333999692,734.1861828999827,734.3694604000193,734.3694604000193,734.5869760999922,space,1,0.20167669997317716,None,734.591806899989,735.102135299996,736.1014265000122,736.0853288000217,,,,,,,,,,,,,,,,,005,001,2025-04-27_19h59.44.535,Cued GoNogo Task,2024.2.4,59.98764254232577,2025-04-27 19h59.54.864020 +0200,
block/CondBlock2.xlsx,You are about to start a block of type 2 trials.,17,17,0,Go,Go,0.26,0.2,0.05,space,blue,vertical,space,320.0796785999555,None,space,1,0.22966760001145303,None,,,,0,1,1,1,0,17,17,17,736.1014265000122,,,,,,,,,,,,,,,,736.0856336000143,736.1014265000122,736.8008475999814,736.8008475999814,737.3002937000128,737.2843267999706,737.2849218000192,737.3002937000128,737.5668464999762,737.7499370999867,737.7499370999867,737.9843658999889,space,1,0.22966760001145303,None,737.9878973999876,738.4994398999843,739.4985785000026,739.4826317999978,,,,,,,,,,,,,,,,,005,001,2025-04-27_19h59.44.535,Cued GoNogo Task,2024.2.4,59.98764254232577,2025-04-27 19h59.54.864020 +0200,
block/CondBlock2.xlsx,You are about to start a block of type 2 trials.,18,18,0,Go,Go,0.1,0.05,0.2,space,blue,horizontal,space,320.0796785999555,None,space,1,0.2541994000202976,None,,,,0,1,1,1,0,18,18,18,739.4985785000026,,,,,,,,,,,,,,,,739.4828479000134,739.4985785000026,740.1979312999756,740.1979312999756,740.6975087000174,740.6816303000087,740.6820139000192,740.6975087000174,740.7975639000069,740.9972997999866,740.9972997999866,741.2650652999873,space,1,0.2541994000202976,None,741.2695106000174,741.7800532999681,742.7792163999984,742.763609000016,,,,,,,,,,,,,,,,,005,001,2025-04-27_19h59.44.535,Cued GoNogo Task,2024.2.4,59.98764254232577,2025-04-27 19h59.54.864020 +0200,
block/CondBlock2.xlsx,You are about to start a block of type 2 trials.,19,19,0,Go,Go,0.46,0.2,0.05,space,blue,vertical,space,320.0796785999555,None,space,1,0.2558151999837719,None,,,,0,1,1,1,0,19,19,19,742.7792163999984,,,,,,,,,,,,,,,,742.7639207000029,742.7792163999984,743.4785662000068,743.4785662000068,743.9780523999943,743.962076900003,743.9626725999988,743.9780523999943,744.4444595999666,744.6276064999984,744.6276064999984,744.8958874000236,space,1,0.2558151999837719,None,744.90047459997,745.4104338000179,746.4094735999824,746.3934233000036,,,,,,,,,,,,,,,,,005,001,2025-04-27_19h59.44.535,Cued GoNogo Task,2024.2.4,59.98764254232577,2025-04-27 19h59.54.864020 +0200,
block/CondBlock2.xlsx,You are about to start a block of type 2 trials.,20,20,0,Go,Go,0.3,0.05,0.2,space,blue,horizontal,space,320.0796785999555,None,space,1,0.2077908999635838,None,,,,0,1,1,1,0,20,20,20,746.4094735999824,,,,,,,,,,,,,,,,746.3936004000134,746.4094735999824,747.1090247000102,747.1090247000102,747.6085536999744,747.5926860999898,747.5933075000066,747.6085536999744,747.9083508999902,748.1081165000214,748.1081165000214,748.3259275999735,space,1,0.2077908999635838,None,748.330201099976,748.8409749999992,749.8400162999751,749.8242548999842,,,,,,,,,,,,,,,,,005,001,2025-04-27_19h59.44.535,Cued GoNogo Task,2024.2.4,59.98764254232577,2025-04-27 19h59.54.864020 +0200,
block/CondBlock2.xlsx,You are about to start a block of type 2 trials.,21,21,0,Go,Go,0.23,0.05,0.2,space,green,horizontal,space,320.0796785999555,None,space,1,0.2759125000447966,None,,,,0,1,1,1,0,21,21,21,749.8400162999751,,,,,,,,,,,,,,,,749.8245969999698,749.8400162999751,750.5393333999673,750.5393333999673,751.0390888999682,751.0228678999702,751.0233164000092,751.0390888999682,751.2721803999739,751.4553803000017,751.4553803000017,751.7398535999819,space,1,0.2759125000447966,None,751.7438672999851,752.254832400009,753.2541030999855,753.2379652999807,,,,,,,,,,,,,,,,,005,001,2025-04-27_19h59.44.535,Cued GoNogo Task,2024.2.4,59.98764254232577,2025-04-27 19h59.54.864020 +0200,
block/CondBlock2.xlsx,You are about to start a block of type 2 trials.,22,22,0,Go,Go,0.19,0.2,0.05,space,green,vertical,space,320.0796785999555,None,space,1,0.19983810000121593,None,,,,0,1,1,1,0,22,22,22,753.2541030999855,,,,,,,,,,,,,,,,753.2381904000067,753.2541030999855,753.9535519999918,753.9535519999918,754.4530104000005,754.4371295999736,754.4377513999934,754.4530104000005,754.652805300022,754.8360572999809,754.8360572999809,755.0380012000096,space,1,0.19983810000121593,None,755.0423538999748,755.5523333000019,756.5512670999742,756.5355840999982,,,,,,,,,,,,,,,,,005,001,2025-04-27_19h59.44.535,Cued GoNogo Task,2024.2.4,59.98764254232577,2025-04-27 19h59.54.864020 +0200,
block/CondBlock2.xlsx,You are about to start a block of type 2 trials.,23,23,0,NoGo,NoGo,0.41,0.2,0.05,none,blue,vertical,space,320.0796785999555,None,None,1,,,,,,0,1,1,1,0,23,23,23,756.5512670999742,,,,,,,,,,,,,,,,756.5359304000158,756.5512670999742,757.2508888000157,757.2508888000157,757.7503107999801,757.7339576000231,757.7343721999787,757.7503107999801,758.1666641000193,758.349779399985,758.349779399985,758.8333742999821,None,1,,,758.8355430000229,759.3322967999848,760.3316016999888,760.3152544000186,758.849358699983,758.849358699983,,,,,,,,,,,,,,,005,001,2025-04-27_19h59.44.535,Cued GoNogo Task,2024.2.4,59.98764254232577,2025-04-27 19h59.54.864020 +0200,
block/CondBlock2.xlsx,You are about to start a block of type 2 trials.,24,24,0,Go,Go,0.17,0.2,0.05,space,blue,vertical,space,320.0796785999555,None,space,1,0.2659167000092566,None,,,,0,1,1,1,0,24,24,24,760.3316016999888,,,,,,,,,,,,,,,,760.3154921000241,760.3481303000008,761.0476181000122,761.0476181000122,761.5472960000043,761.5312462999718,761.5317687999923,761.5472960000043,761.7304925000062,761.913461100019,761.913461100019,762.1818432,space,1,0.2659167000092566,None,762.1859108000062,762.6962867999682,763.6953964999993,763.680049800023,,,,,,,,,,,,,,,,,005,001,2025-04-27_19h59.44.535,Cued GoNogo Task,2024.2.4,59.98764254232577,2025-04-27 19h59.54.864020 +0200,
block/CondBlock2.xlsx,You are about to start a block of type 2 trials.,25,25,0,Go,Go,0.27,0.05,0.2,space,blue,horizontal,space,320.0796785999555,None,space,1,0.282982999982778,None,,,,0,1,1,1,0,25,25,25,763.6953964999993,,,,,,,,,,,,,,,,763.6804715999751,763.6953964999993,764.3948507999885,764.3948507999885,764.8944564000121,764.8785423000227,764.8791445000097,764.8944564000121,765.177602300013,765.3607582999975,765.3607582999975,765.6470843999996,space,1,0.282982999982778,None,765.6514713999932,766.1600623999839,767.1591309999931,767.1432043000241,,,,,,,,,,,,,,,,,005,001,2025-04-27_19h59.44.535,Cued GoNogo Task,2024.2.4,59.98764254232577,2025-04-27 19h59.54.864020 +0200,
block/CondBlock2.xlsx,You are about to start a block of type 2 trials.,26,26,0,Go,Go,0.26,0.05,0.2,space,green,horizontal,space,320.0796785999555,None,None,0,,,,,,0,1,1,1,0,26,26,26,767.1591309999931,,,,,,,,,,,,,,,,767.1434479000163,767.1591309999931,767.8588677999796,767.8588677999796,768.3582756000105,768.3427831999725,768.34359579999,768.3582756000105,768.6246524999733,768.808068000013,768.808068000013,769.2918228000053,None,0,,,769.295585600019,769.8071451999713,770.8061230999883,770.7901268000132,769.3073090999969,769.3073090999969,,,,,,,,,,,,,,,005,001,2025-04-27_19h59.44.535,Cued GoNogo Task,2024.2.4,59.98764254232577,2025-04-27 19h59.54.864020 +0200,
block/CondBlock2.xlsx,You are about to start a block of type 2 trials.,27,27,0,Go,Go,0.22,0.2,0.05,space,green,vertical,space,320.0796785999555,None,space,1,0.24532149999868125,None,,,,0,1,1,1,0,27,27,27,770.8061230999883,,,,,,,,,,,,,,,,770.7903734999709,770.8061230999883,771.5057191000087,771.5057191000087,772.0053252999787,771.9892507999903,771.9898364999681,772.0053252999787,772.2386639000033,772.4215815999778,772.4215815999778,772.6730032999767,space,1,0.24532149999868125,None,772.6767260999768,773.1876201999839,774.1868517000112,774.1712883000146,,,,,,,,,,,,,,,,,005,001,2025-04-27_19h59.44.535,Cued GoNogo Task,2024.2.4,59.98764254232577,2025-04-27 19h59.54.864020 +0200,
block/CondBlock2.xlsx,You are about to start a block of type 2 trials.,28,28,0,Go,Go,0.19,0.05,0.2,space,blue,horizontal,space,320.0796785999555,None,space,1,0.23370300000533462,None,,,,0,1,1,1,0,28,28,28,774.1868517000112,,,,,,,,,,,,,,,,774.1716273999773,774.1868517000112,774.8864068000112,774.8864068000112,775.3857530999812,775.3699725000188,775.3706461999682,775.3857530999812,775.5856634000083,775.7690146999666,775.7690146999666,776.0051514999941,space,1,0.23370300000533462,None,776.0096284999745,776.5182113000192,777.5172309000045,777.5014997000108,,,,,,,,,,,,,,,,,005,001,2025-04-27_19h59.44.535,Cued GoNogo Task,2024.2.4,59.98764254232577,2025-04-27 19h59.54.864020 +0200,
block/CondBlock2.xlsx,You are about to start a block of type 2 trials.,29,29,0,Go,Go,0.18,0.05,0.2,space,blue,horizontal,space,320.0796785999555,None,space,1,0.20077360002323985,None,,,,0,1,1,1,0,29,29,29,777.5172309000045,,,,,,,,,,,,,,,,777.5017650999944,777.5172309000045,778.216692099988,778.216692099988,778.7163590000127,778.7007374999812,778.7014369000099,778.7163590000127,778.8996442999924,779.0995087000192,779.0995087000192,779.3177357999957,space,1,0.20077360002323985,None,779.3230389999808,779.832269800012,780.8312017999706,780.8155628999812,,,,,,,,,,,,,,,,,005,001,2025-04-27_19h59.44.535,Cued GoNogo Task,2024.2.4,59.98764254232577,2025-04-27 19h59.54.864020 +0200,
block/CondBlock2.xlsx,You are about to start a block of type 2 trials.,30,30,0,NoGo,NoGo,0.23,0.2,0.05,none,blue,vertical,space,320.0796785999555,None,space,0,0.2764117000042461,None,,,,0,1,1,1,0,30,30,30,780.8312017999706,,,,,,,,,,,,,,,,780.8158476999961,780.8312017999706,781.531068500015,781.531068500015,782.0304135999759,782.0144147999818,782.0150958999875,782.0304135999759,782.2636878999765,782.463346900011,782.463346900011,782.747663600021,space,0,0.2764117000042461,None,782.7522926999955,783.2629760999698,784.2619374999776,784.2463675999898,,,,,,,,,,,,,,,,,005,001,2025-04-27_19h59.44.535,Cued GoNogo Task,2024.2.4,59.98764254232577,2025-04-27 19h59.54.864020 +0200,
block/CondBlock2.xlsx,You are about to start a block of type 2 trials.,31,31,0,Go,Go,0.43,0.2,0.05,space,green,vertical,space,320.0796785999555,None,space,1,0.31800500000827014,None,,,,0,1,1,1,0,31,31,31,784.2619374999776,,,,,,,,,,,,,,,,784.2467889999971,784.2619374999776,784.961214400013,784.961214400013,785.4608378999983,785.4446821999736,785.4453065000125,785.4608378999983,785.8938998000231,786.0768765999819,786.0768765999819,786.4110547999735,space,1,0.31800500000827014,None,786.4146104999818,786.9263151999912,787.9255988000077,787.9098243999761,,,,,,,,,,,,,,,,,005,001,2025-04-27_19h59.44.535,Cued GoNogo Task,2024.2.4,59.98764254232577,2025-04-27 19h59.54.864020 +0200,
block/CondBlock2.xlsx,You are about to start a block of type 2 trials.,32,32,0,Go,Go,0.13,0.05,0.2,space,blue,horizontal,space,320.0796785999555,None,space,1,0.2747996000107378,None,,,,0,1,1,1,0,32,32,32,787.9255988000077,,,,,,,,,,,,,,,,787.9102516999701,787.9255988000077,788.6249998999992,788.6249998999992,789.1244912999682,789.1086308999802,789.1094656999921,789.1244912999682,789.2578024999821,789.4409430000233,789.4409430000233,789.7253224999877,space,1,0.2747996000107378,None,789.7295209000004,790.2402358999825,791.239317199972,791.2235863999813,,,,,,,,,,,,,,,,,005,001,2025-04-27_19h59.44.535,Cued GoNogo Task,2024.2.4,59.98764254232577,2025-04-27 19h59.54.864020 +0200,
block/CondBlock2.xlsx,You are about to start a block of type 2 trials.,33,33,0,Go,Go,0.45,0.05,0.2,space,green,horizontal,space,320.0796785999555,None,space,1,0.17924909997964278,None,,,,0,1,1,1,0,33,33,33,791.239317199972,,,,,,,,,,,,,,,,791.2238523999695,791.239317199972,791.9388016000157,791.9388016000157,792.4384094999987,792.422416299989,792.42299370002,792.4384094999987,792.8881667999667,793.088067899982,793.088067899982,793.2722430999856,space,1,0.17924909997964278,None,793.2761946999817,793.7875724000041,794.7867701000068,794.7708329000161,,,,,,,,,,,,,,,,,005,001,2025-04-27_19h59.44.535,Cued GoNogo Task,2024.2.4,59.98764254232577,2025-04-27 19h59.54.864020 +0200,
block/CondBlock2.xlsx,You are about to start a block of type 2 trials.,34,34,0,Go,Go,0.14,0.2,0.05,space,blue,vertical,space,320.0796785999555,None,space,1,0.3421474000206217,None,,,,0,1,1,1,0,34,34,34,794.7867701000068,,,,,,,,,,,,,,,,794.7711549000232,794.7867701000068,795.4860739000142,795.4860739000142,795.9854278999846,795.9698812999995,795.9706116999732,795.9854278999846,796.1355791999958,796.318514899991,796.318514899991,796.6694740999956,space,1,0.3421474000206217,None,796.6734210000141,797.1844318999792,798.183649500017,798.1677316999994,,,,,,,,,,,,,,,,,005,001,2025-04-27_19h59.44.535,Cued GoNogo Task,2024.2.4,59.98764254232577,2025-04-27 19h59.54.864020 +0200,
block/CondBlock2.xlsx,You are about to start a block of type 2 trials.,35,35,0,Go,Go,0.11,0.2,0.05,space,blue,vertical,space,320.0796785999555,None,space,1,0.3689353999798186,None,,,,0,1,1,1,0,35,35,35,798.183649500017,,,,,,,,,,,,,,,,798.1680366999935,798.183649500017,798.8832548999926,798.8832548999926,799.382672799984,799.3668501999928,799.3676070999936,799.382672799984,799.499393599981,799.6824392999988,799.6824392999988,800.0666584999999,space,1,0.3689353999798186,None,800.070647799992,800.5817863999982,801.5808718000189,801.5649156,,,,,,,,,,,,,,,,,005,001,2025-04-27_19h59.44.535,Cued GoNogo Task,2024.2.4,59.98764254232577,2025-04-27 19h59.54.864020 +0200,
block/CondBlock2.xlsx,You are about to start a block of type 2 trials.,36,36,0,Go,Go,0.15,0.05,0.2,space,green,horizontal,space,320.0796785999555,None,space,1,0.23376179998740554,None,,,,0,1,1,1,0,36,36,36,801.5808718000189,,,,,,,,,,,,,,,,801.5651263999753,801.5808718000189,802.2804924999946,802.2804924999946,802.7799059000099,802.7641240999801,802.7648097000201,802.7799059000099,802.9299278999679,803.1297308999929,803.1297308999929,803.3804509000038,space,1,0.23376179998740554,None,803.3829560999875,803.8959034999716,804.8950099999784,804.8788299000007,,,,,,,,,,,,,,,,,005,001,2025-04-27_19h59.44.535,Cued GoNogo Task,2024.2.4,59.98764254232577,2025-04-27 19h59.54.864020 +0200,
block/CondBlock2.xlsx,You are about to start a block of type 2 trials.,37,37,0,Go,Go,0.15,0.2,0.05,space,green,vertical,space,320.0796785999555,None,space,1,0.4245624999748543,None,,,,0,1,1,1,0,37,37,37,804.8950099999784,,,,,,,,,,,,,,,,804.8790661999956,804.8950099999784,805.5942784000072,805.5942784000072,806.0939721000032,806.0782421000185,806.0788763000164,806.0939721000032,806.2438855000073,806.4437200999819,806.4437200999819,806.8775566999684,space,1,0.4245624999748543,None,806.8812898999895,807.3930517999688,,808.3923929000157,,,,,,,,,,,,,,,,,005,001,2025-04-27_19h59.44.535,Cued GoNogo Task,2024.2.4,59.98764254232577,2025-04-27 19h59.54.864020 +0200,
block/CondBlock2.xlsx,You are about to start a block of type 2 trials.,38,38,0,NoGo,NoGo,0.14,0.2,0.05,none,green,vertical,space,320.0796785999555,None,space,0,0.26304530003108084,None,,,,0,1,1,1,0,38,38,38,808.4086582000018,,,,,,,,,,,,,,,,808.3928458999726,808.4086582000018,809.0913670000155,809.1083059000084,809.5909250999684,809.5749837000039,809.5755277000135,809.5909250999684,809.7407679000171,809.9239757999894,809.9239757999894,810.1919478999916,space,0,0.26304530003108084,None,810.1964477999718,810.706812999968,811.705865899974,811.6899736999767,,,,,,,,,,,,,,,,,005,001,2025-04-27_19h59.44.535,Cued GoNogo Task,2024.2.4,59.98764254232577,2025-04-27 19h59.54.864020 +0200,
block/CondBlock2.xlsx,You are about to start a block of type 2 trials.,39,39,0,Go,Go,0.46,0.2,0.05,space,green,vertical,space,320.0796785999555,None,space,1,0.28901970002334565,None,,,,0,1,1,1,0,39,39,39,811.705865899974,,,,,,,,,,,,,,,,811.6902110999799,811.705865899974,812.4054336000117,812.4054336000117,812.905077399977,812.8893206000212,812.8899932000204,812.905077399977,813.3711754999822,813.5543314000242,813.5543314000242,813.8554437999846,space,1,0.28901970002334565,None,813.8597933999845,814.3705697999685,815.3695494999993,815.353588900005,,,,,,,,,,,,,,,,,005,001,2025-04-27_19h59.44.535,Cued GoNogo Task,2024.2.4,59.98764254232577,2025-04-27 19h59.54.864020 +0200,
block/CondBlock2.xlsx,You are about to start a block of type 2 trials.,40,40,0,Go,Go,0.5,0.05,0.2,space,blue,horizontal,space,320.0796785999555,None,space,1,0.295687599980738,None,,,,0,1,1,1,0,40,40,40,815.3695494999993,,,,,,,,,,,,,,,,815.3538368999725,815.3695494999993,816.0690550999716,816.0690550999716,816.5686413000221,816.5524624999962,816.5529699000181,816.5686413000221,817.0680484999903,817.2680787999998,817.2680787999998,817.5689314000192,space,1,0.295687599980738,None,817.572949399997,818.0841555999941,819.0832845999976,819.0672555000056,,,,,,,,,,,,,,,,,005,001,2025-04-27_19h59.44.535,Cued GoNogo Task,2024.2.4,59.98764254232577,2025-04-27 19h59.54.864020 +0200,
block/CondBlock2.xlsx,You are about to start a block of type 2 trials.,41,41,0,Go,Go,0.16,0.05,0.2,space,green,horizontal,space,320.0796785999555,None,space,1,0.308214400021825,None,,,,0,1,1,1,0,41,41,41,819.0832845999976,,,,,,,,,,,,,,,,819.0675478000194,819.0832845999976,819.782610299997,819.782610299997,820.2821494999807,820.266303899989,820.2669542999938,820.2821494999807,820.4486372999963,820.6317910000216,820.6317910000216,820.9496101000113,space,1,0.308214400021825,None,820.9542476999923,821.4645688000019,822.4638477999833,822.4481535999803,,,,,,,,,,,,,,,,,005,001,2025-04-27_19h59.44.535,Cued GoNogo Task,2024.2.4,59.98764254232577,2025-04-27 19h59.54.864020 +0200,
