Block,blockMsg,thisN,thisTrialN,thisRepN,CueType,StimType,CueTime,Stim_Height,Stim_Width,CRESP,Color,Orientation,key_resp_2.keys,key_resp_2.rt,key_resp_2.duration,Key_Resp.keys,Key_Resp.corr,Key_Resp.rt,Key_Resp.duration,key_resp_3.keys,key_resp_3.rt,key_resp_3.duration,Blocks.thisRepN,Blocks.thisTrialN,Blocks.thisN,Blocks.thisIndex,Trials.thisRepN,Trials.thisTrialN,Trials.thisN,Trials.thisIndex,thisRow.t,notes,TaskIntro.started,fixation.started,key_resp.started,TaskIntro.stopped,key_resp.keys,key_resp.rt,key_resp.duration,BlockStart.started,BlockStart_Msg.started,key_resp_2.started,BlockStart.stopped,Blocks.key_resp_2.keys,Blocks.key_resp_2.rt,Blocks.key_resp_2.duration,Fixation.started,FixationPhase.started,Blank.started,FixationPhase.stopped,Blank.stopped,Fixation.stopped,Trial.started,Cue.started,Cue.stopped,GoNogo_Stim.started,Key_Resp.started,Trial.stopped,Trials.Key_Resp.keys,Trials.Key_Resp.corr,Trials.Key_Resp.rt,Trials.Key_Resp.duration,Feedback.started,Feedback_Present.started,Feedback.stopped,GoNogo_Stim.stopped,Key_Resp.stopped,Feedback_Present.stopped,BlockEnd.started,BlockEnd_Msg.started,key_resp_3.started,BlockEnd.stopped,Blocks.key_resp_3.keys,Blocks.key_resp_3.rt,Blocks.key_resp_3.duration,TaskEnd.started,ThankYou.started,key_resp_4.started,TaskEnd.stopped,key_resp_4.keys,key_resp_4.rt,key_resp_4.duration,participant,session,date,expName,psychopyVersion,frameRate,expStart,
,,,,,,,,,,,,,,,,,,,,,,,,,,,,,,,,,0.0015937000280246139,0.0043345000594854355,0.0043345000594854355,19.996340300072916,space,19.927711899974383,None,,,,,,,,,,,,,,,,,,,,,,,,,,,,,,,,,,,,,,,,,,,,007,002,2025-05-01_20h03.09.642,Cued GoNogo Task,2024.2.4,60.04148867704207,2025-05-01 20h03.21.591103 +0200,
block/CondBlock1.xlsx,You are about to start a block of type 1 trials.,0,0,0,Go,Go,0.13,0.05,0.2,space,blue,horizontal,space,0.8979156999848783,None,space,1,0.3195463999873027,None,,,,0,0,0,0,0,0,0,0,20.993714099982753,,,,,,,,,20.005894700065255,20.008187200059183,20.008187200059183,20.920650199986994,space,0.8979156999848783,None,20.991227700025775,20.993714099982753,21.634970500017516,21.701394299976528,22.134642599965446,22.119073000038043,22.119968499988317,22.134642599965446,22.267889700015076,22.450978900073096,22.450978900073096,22.78516239998862,space,1,0.3195463999873027,None,22.79681910004001,23.300459200050682,24.299484699964523,,,,,,,,,,,,,,,,,,007,002,2025-05-01_20h03.09.642,Cued GoNogo Task,2024.2.4,60.04148867704207,2025-05-01 20h03.21.591103 +0200,
block/CondBlock1.xlsx,You are about to start a block of type 1 trials.,1,1,0,NoGo,NoGo,0.43,0.05,0.2,none,blue,horizontal,space,0.8979156999848783,None,None,1,,,,,,0,0,0,0,0,1,1,1,24.31603890005499,,,,,,,,,,,,,,,,24.299758700071834,24.31603890005499,24.99887500004843,25.015406799968332,25.498576599988155,25.48304379999172,25.48404979996849,25.498576599988155,25.931466300040483,26.114577800035477,26.114577800035477,26.598334199981764,None,1,,,26.60248210001737,27.113749900017865,28.097065299982205,26.614075000048615,26.614075000048615,28.112796299974434,,,,,,,,,,,,,,,007,002,2025-05-01_20h03.09.642,Cued GoNogo Task,2024.2.4,60.04148867704207,2025-05-01 20h03.21.591103 +0200,
block/CondBlock1.xlsx,You are about to start a block of type 1 trials.,2,2,0,Go,Go,0.12,0.2,0.05,space,blue,vertical,space,0.8979156999848783,None,space,1,0.19008309999480844,None,,,,0,0,0,0,0,2,2,2,28.112796299974434,,,,,,,,,,,,,,,,28.097384899971075,28.112796299974434,28.812576199998148,28.812576199998148,29.311919800005853,29.295906500075944,29.296448800014332,29.311919800005853,29.445190600003116,29.628581700031646,29.628581700031646,29.829404899966903,space,1,0.19008309999480844,None,29.834298999980092,30.344275300041772,31.327938299975358,,,31.343507600016892,,,,,,,,,,,,,,,007,002,2025-05-01_20h03.09.642,Cued GoNogo Task,2024.2.4,60.04148867704207,2025-05-01 20h03.21.591103 +0200,
block/CondBlock1.xlsx,You are about to start a block of type 1 trials.,3,3,0,NoGo,NoGo,0.18,0.2,0.05,none,green,vertical,space,0.8979156999848783,None,None,1,,,,,,0,0,0,0,0,3,3,3,31.343507600016892,,,,,,,,,,,,,,,,31.328271400067024,31.343507600016892,32.043058300041594,32.043058300041594,32.54263360006735,32.5267359999707,32.5273554000305,32.54263360006735,32.72591200005263,32.90892499999609,32.90892499999609,33.39309749996755,None,1,,,33.39632230007555,33.90825600002427,34.89150440006051,33.4085299000144,33.4085299000144,34.907508700038306,,,,,,,,,,,,,,,007,002,2025-05-01_20h03.09.642,Cued GoNogo Task,2024.2.4,60.04148867704207,2025-05-01 20h03.21.591103 +0200,
block/CondBlock1.xlsx,You are about to start a block of type 1 trials.,4,4,0,Go,Go,0.24,0.05,0.2,space,green,horizontal,space,0.8979156999848783,None,space,1,0.14258509990759194,None,,,,0,0,0,0,0,4,4,4,34.907508700038306,,,,,,,,,,,,,,,,34.89180750004016,34.907508700038306,35.60676070000045,35.60676070000045,36.106350300018676,36.09033290005755,36.09104109997861,36.106350300018676,36.35628509998787,36.53940230002627,36.53940230002627,36.690487100044265,space,1,0.14258509990759194,None,36.69650840002578,37.20539849996567,38.1886948000174,,,38.20452709996607,,,,,,,,,,,,,,,007,002,2025-05-01_20h03.09.642,Cued GoNogo Task,2024.2.4,60.04148867704207,2025-05-01 20h03.21.591103 +0200,
block/CondBlock1.xlsx,You are about to start a block of type 1 trials.,5,5,0,Go,Go,0.21,0.05,0.2,space,blue,horizontal,space,0.8979156999848783,None,space,1,0.1840833000605926,None,,,,0,0,0,0,0,5,5,5,38.20452709996607,,,,,,,,,,,,,,,,38.18899170006625,38.20452709996607,38.90392509999219,38.90392509999219,39.40364330005832,39.38752790004946,39.38818400003947,39.40364330005832,39.62033329997212,39.80332339997403,39.80332339997403,40.00430739996955,space,1,0.1840833000605926,None,40.00985350005794,40.5193292000331,41.50282649998553,,,41.518570300075226,,,,,,,,,,,,,,,007,002,2025-05-01_20h03.09.642,Cued GoNogo Task,2024.2.4,60.04148867704207,2025-05-01 20h03.21.591103 +0200,
block/CondBlock1.xlsx,You are about to start a block of type 1 trials.,6,6,0,Go,Go,0.11,0.2,0.05,space,blue,vertical,space,0.8979156999848783,None,space,1,0.18527030001860112,None,,,,0,0,0,0,0,6,6,6,41.518570300075226,,,,,,,,,,,,,,,,41.50315900007263,41.518570300075226,42.217845499981195,42.217845499981195,42.717600299976766,42.70180020004045,42.70252769999206,42.717600299976766,42.83418850007001,43.01725140004419,43.01725140004419,43.21826370002236,space,1,0.18527030001860112,None,43.22288670006674,43.73342429997865,44.717274800059386,,,44.73262450005859,,,,,,,,,,,,,,,007,002,2025-05-01_20h03.09.642,Cued GoNogo Task,2024.2.4,60.04148867704207,2025-05-01 20h03.21.591103 +0200,
block/CondBlock1.xlsx,You are about to start a block of type 1 trials.,7,7,0,Go,Go,0.15,0.2,0.05,space,blue,vertical,space,0.8979156999848783,None,space,1,0.3290605000220239,None,,,,0,0,0,0,0,7,7,7,44.73262450005859,,,,,,,,,,,,,,,,44.71771700005047,44.73262450005859,45.43206390005071,45.43206390005071,45.93160820007324,45.9156141000567,45.91627819999121,45.93160820007324,46.08147470001131,46.281314000021666,46.281314000021666,46.61559359997045,space,1,0.3290605000220239,None,46.619009000016376,47.13068930001464,48.11414760001935,,,48.12969560001511,,,,,,,,,,,,,,,007,002,2025-05-01_20h03.09.642,Cued GoNogo Task,2024.2.4,60.04148867704207,2025-05-01 20h03.21.591103 +0200,
block/CondBlock1.xlsx,You are about to start a block of type 1 trials.,8,8,0,NoGo,NoGo,0.3,0.05,0.2,none,blue,horizontal,space,0.8979156999848783,None,None,1,,,,,,0,0,0,0,0,8,8,8,48.12969560001511,,,,,,,,,,,,,,,,48.11452499998268,48.12969560001511,48.82905529998243,48.82905529998243,49.328864000039175,49.312763300025836,49.31338239996694,49.328864000039175,49.62846300005913,49.828321899985895,49.828321899985895,50.31229570007417,None,1,,,50.315172699978575,50.82767190004233,51.811157700023614,50.32776630006265,50.32776630006265,51.826843500020914,,,,,,,,,,,,,,,007,002,2025-05-01_20h03.09.642,Cued GoNogo Task,2024.2.4,60.04148867704207,2025-05-01 20h03.21.591103 +0200,
block/CondBlock1.xlsx,You are about to start a block of type 1 trials.,9,9,0,NoGo,NoGo,0.17,0.05,0.2,none,blue,horizontal,space,0.8979156999848783,None,space,0,0.23365149996243417,None,,,,0,0,0,0,0,9,9,9,51.826843500020914,,,,,,,,,,,,,,,,51.811439000070095,51.826843500020914,52.52616949996445,52.52616949996445,53.02585309999995,53.00972660002299,53.01032950007357,53.02585309999995,53.2090188000584,53.39225889998488,53.39225889998488,53.64331369998399,space,0,0.23365149996243417,None,53.66598869999871,54.15832400007639,55.14128850004636,,,55.15764320001472,,,,,,,,,,,,,,,007,002,2025-05-01_20h03.09.642,Cued GoNogo Task,2024.2.4,60.04148867704207,2025-05-01 20h03.21.591103 +0200,
block/CondBlock1.xlsx,You are about to start a block of type 1 trials.,10,10,0,NoGo,NoGo,0.26,0.2,0.05,none,green,vertical,space,0.8979156999848783,None,space,0,0.26127360004466027,None,,,,0,0,0,0,0,10,10,10,55.15764320001472,,,,,,,,,,,,,,,,55.14154480001889,55.15764320001472,55.85664550005458,55.85664550005458,56.356411800021306,56.3403862999985,56.340979099972174,56.356411800021306,56.62266880006064,56.80602500005625,56.80602500005625,57.0734413000755,space,0,0.26127360004466027,None,57.07383930007927,57.588651600060984,58.57230380002875,,,58.587816999992356,,,,,,,,,,,,,,,007,002,2025-05-01_20h03.09.642,Cued GoNogo Task,2024.2.4,60.04148867704207,2025-05-01 20h03.21.591103 +0200,
block/CondBlock1.xlsx,You are about to start a block of type 1 trials.,11,11,0,Go,Go,0.27,0.05,0.2,space,green,horizontal,space,0.8979156999848783,None,space,1,0.2929798000259325,None,,,,0,0,0,0,0,11,11,11,58.587816999992356,,,,,,,,,,,,,,,,58.57264709996525,58.587816999992356,59.287185100023635,59.287185100023635,59.786922300001606,59.77119140001014,59.77200420002919,59.786922300001606,60.070048599969596,60.2533042000141,60.2533042000141,60.55392350000329,space,1,0.2929798000259325,None,60.557399600045756,61.06912060000468,62.05231759999879,,,62.06851260003168,,,,,,,,,,,,,,,007,002,2025-05-01_20h03.09.642,Cued GoNogo Task,2024.2.4,60.04148867704207,2025-05-01 20h03.21.591103 +0200,
block/CondBlock1.xlsx,You are about to start a block of type 1 trials.,12,12,0,Go,Go,0.16,0.2,0.05,space,green,vertical,space,0.8979156999848783,None,space,1,0.28199469996616244,None,,,,0,0,0,0,0,12,12,12,62.06851260003168,,,,,,,,,,,,,,,,62.05270090000704,62.06851260003168,62.767770200036466,62.767770200036466,63.267246300005354,63.25146230007522,63.252152299974114,63.267246300005354,63.43390890001319,63.6170390000334,63.6170390000334,63.901787400012836,space,1,0.28199469996616244,None,63.90582990006078,64.41645670006983,65.39976880000904,,,65.41577389999293,,,,,,,,,,,,,,,007,002,2025-05-01_20h03.09.642,Cued GoNogo Task,2024.2.4,60.04148867704207,2025-05-01 20h03.21.591103 +0200,
block/CondBlock1.xlsx,You are about to start a block of type 1 trials.,13,13,0,Go,Go,0.13,0.2,0.05,space,green,vertical,space,0.8979156999848783,None,space,1,0.35177750000730157,None,,,,0,0,0,0,0,13,13,13,65.41577389999293,,,,,,,,,,,,,,,,65.40003939997405,65.41577389999293,66.11502260004636,66.11502260004636,66.61446319997776,66.59878200001549,66.59942089999095,66.61446319997776,66.74774859996978,66.9309254999971,66.9309254999971,67.29831760004163,space,1,0.35177750000730157,None,67.30087629996706,67.81360630004201,68.79680550005287,,,68.81277930003125,,,,,,,,,,,,,,,007,002,2025-05-01_20h03.09.642,Cued GoNogo Task,2024.2.4,60.04148867704207,2025-05-01 20h03.21.591103 +0200,
block/CondBlock1.xlsx,You are about to start a block of type 1 trials.,14,14,0,Go,Go,0.12,0.05,0.2,space,blue,horizontal,space,0.8979156999848783,None,space,1,0.2831222000531852,None,,,,0,0,0,0,0,14,14,14,68.81277930003125,,,,,,,,,,,,,,,,68.79703859996516,68.81277930003125,69.5121533999918,69.5121533999918,70.01173240004573,69.99655779998284,69.99758409999777,70.01173240004573,70.14498710003681,70.3286911000032,70.3286911000032,70.6147428000113,space,1,0.2831222000531852,None,70.61951620003674,71.12751490005758,72.11094430007506,,,72.12665630003903,,,,,,,,,,,,,,,007,002,2025-05-01_20h03.09.642,Cued GoNogo Task,2024.2.4,60.04148867704207,2025-05-01 20h03.21.591103 +0200,
block/CondBlock1.xlsx,You are about to start a block of type 1 trials.,15,15,0,Go,Go,0.45,0.2,0.05,space,blue,vertical,space,0.8979156999848783,None,space,1,0.3153820999432355,None,,,,0,0,0,0,0,15,15,15,72.12665630003903,,,,,,,,,,,,,,,,72.1112712000031,72.12665630003903,72.82634120003786,72.82634120003786,73.3256666000234,73.30967390001751,73.31061100005172,73.3256666000234,73.77534849999938,73.97523630002979,73.97523630002979,74.29315779998433,space,1,0.3153820999432355,None,74.29648969997652,74.80786920001265,75.79096760007087,,,75.80700200004503,,,,,,,,,,,,,,,007,002,2025-05-01_20h03.09.642,Cued GoNogo Task,2024.2.4,60.04148867704207,2025-05-01 20h03.21.591103 +0200,
block/CondBlock1.xlsx,You are about to start a block of type 1 trials.,16,16,0,NoGo,NoGo,0.14,0.2,0.05,none,green,vertical,space,0.8979156999848783,None,None,1,,,,,,0,0,0,0,0,16,16,16,75.80700200004503,,,,,,,,,,,,,,,,75.79118589998689,75.80700200004503,76.50651660002768,76.50651660002768,77.0061854000669,76.99046390003059,76.99115320004057,77.0061854000669,77.15597950003576,77.33909929997753,77.33909929997753,77.8226950999815,None,1,,,77.82462480000686,78.33823640004266,79.32161760004237,77.83874649996869,77.83874649996869,79.33749519998673,,,,,,,,,,,,,,,007,002,2025-05-01_20h03.09.642,Cued GoNogo Task,2024.2.4,60.04148867704207,2025-05-01 20h03.21.591103 +0200,
block/CondBlock1.xlsx,You are about to start a block of type 1 trials.,17,17,0,Go,Go,0.12,0.05,0.2,space,green,horizontal,space,0.8979156999848783,None,space,1,0.38212619989644736,None,,,,0,0,0,0,0,17,17,17,79.33749519998673,,,,,,,,,,,,,,,,79.32191489997786,79.33749519998673,80.03699389996473,80.03699389996473,80.53658840002026,80.52056119998451,80.52117429999635,80.53658840002026,80.66973129997496,80.85285580006894,80.85285580006894,81.23765939997975,space,1,0.38212619989644736,None,81.24233829998411,81.75210869999137,82.73582339996938,,,82.75121580006089,,,,,,,,,,,,,,,007,002,2025-05-01_20h03.09.642,Cued GoNogo Task,2024.2.4,60.04148867704207,2025-05-01 20h03.21.591103 +0200,
block/CondBlock1.xlsx,You are about to start a block of type 1 trials.,18,18,0,Go,Go,0.47,0.2,0.05,space,blue,vertical,space,0.8979156999848783,None,space,1,0.3619575999910012,None,,,,0,0,0,0,0,18,18,18,82.75121580006089,,,,,,,,,,,,,,,,82.73612360004336,82.75121580006089,83.45074710005429,83.45074710005429,83.95046490000095,83.93450710002799,83.93493400001898,83.95046490000095,84.43331800005399,84.61654580000322,84.61654580000322,84.98402099998202,space,1,0.3619575999910012,None,84.98952659999486,85.49910750007257,86.48230070003774,,,86.49835430004168,,,,,,,,,,,,,,,007,002,2025-05-01_20h03.09.642,Cued GoNogo Task,2024.2.4,60.04148867704207,2025-05-01 20h03.21.591103 +0200,
block/CondBlock1.xlsx,You are about to start a block of type 1 trials.,19,19,0,Go,Go,0.18,0.2,0.05,space,green,vertical,space,0.8979156999848783,None,space,1,0.3314650999382138,None,,,,0,0,0,0,0,19,19,19,86.49835430004168,,,,,,,,,,,,,,,,86.48253769997973,86.49835430004168,87.19763269997202,87.19763269997202,87.69729839998763,87.68128060002346,87.68199770001229,87.69729839998763,87.88036880001891,88.06358610000461,88.06358610000461,88.39838719996624,space,1,0.3314650999382138,None,88.40259740001056,88.91284700005781,89.89615769998636,,,89.91207439999562,,,,,,,,,,,,,,,007,002,2025-05-01_20h03.09.642,Cued GoNogo Task,2024.2.4,60.04148867704207,2025-05-01 20h03.21.591103 +0200,
block/CondBlock1.xlsx,You are about to start a block of type 1 trials.,20,20,0,Go,Go,0.19,0.2,0.05,space,blue,vertical,space,0.8979156999848783,None,space,1,0.2771816001040861,None,,,,0,0,0,0,0,20,20,20,89.91207439999562,,,,,,,,,,,,,,,,89.89638789999299,89.91207439999562,90.61141130002216,90.61141130002216,91.11110980005469,91.09561790002044,91.0963928999845,91.11110980005469,91.31083339999896,91.4942466999637,91.4942466999637,91.77805049996823,space,1,0.2771816001040861,None,91.78284880006686,92.29365190002136,93.29282209998928,,,,,,,,,,,,,,,,,,007,002,2025-05-01_20h03.09.642,Cued GoNogo Task,2024.2.4,60.04148867704207,2025-05-01 20h03.21.591103 +0200,
block/CondBlock1.xlsx,You are about to start a block of type 1 trials.,21,21,0,Go,Go,0.14,0.2,0.05,space,blue,vertical,space,0.8979156999848783,None,space,1,0.3310012000147253,None,,,,0,0,0,0,0,21,21,21,93.30917170003522,,,,,,,,,,,,,,,,93.29311329999473,93.30917170003522,93.99218299996573,94.00868800003082,94.4915487000253,94.47570269997232,94.47622830001637,94.4915487000253,94.6416087000398,94.82475280005019,94.82475280005019,95.15927080006804,space,1,0.3310012000147253,None,95.16286070004571,95.67411400005221,96.65755360003095,,,96.67324889998417,,,,,,,,,,,,,,,007,002,2025-05-01_20h03.09.642,Cued GoNogo Task,2024.2.4,60.04148867704207,2025-05-01 20h03.21.591103 +0200,
block/CondBlock1.xlsx,You are about to start a block of type 1 trials.,22,22,0,Go,Go,0.15,0.2,0.05,space,blue,vertical,space,0.8979156999848783,None,space,1,0.30075709999073297,None,,,,0,0,0,0,0,22,22,22,96.67324889998417,,,,,,,,,,,,,,,,96.65776810003445,96.67324889998417,97.3726179000223,97.3726179000223,97.87206109997351,97.85635560005903,97.85724729998037,97.87206109997351,98.0220386000583,98.22194860002492,98.22194860002492,98.539254500065,space,1,0.30075709999073297,None,98.54219740000553,99.0547174999956,100.05390860000625,,,,,,,,,,,,,,,,,,007,002,2025-05-01_20h03.09.642,Cued GoNogo Task,2024.2.4,60.04148867704207,2025-05-01 20h03.21.591103 +0200,
block/CondBlock1.xlsx,You are about to start a block of type 1 trials.,23,23,0,Go,Go,0.23,0.05,0.2,space,green,horizontal,space,0.8979156999848783,None,space,1,0.38953170005697757,None,,,,0,0,0,0,0,23,23,23,100.07037129998207,,,,,,,,,,,,,,,,100.05420770007186,100.07037129998207,100.75326550006866,100.77005629998166,101.25274670007639,101.2373051000759,101.23828200006392,101.25274670007639,101.48583360004704,101.66910619998816,101.66910619998816,102.07000449998304,space,1,0.38953170005697757,None,102.07334760006052,102.58496740006376,103.56832409999333,,,103.58419770002365,,,,,,,,,,,,,,,007,002,2025-05-01_20h03.09.642,Cued GoNogo Task,2024.2.4,60.04148867704207,2025-05-01 20h03.21.591103 +0200,
block/CondBlock1.xlsx,You are about to start a block of type 1 trials.,24,24,0,Go,Go,0.2,0.2,0.05,space,blue,vertical,space,0.8979156999848783,None,space,1,0.25971329992171377,None,,,,0,0,0,0,0,24,24,24,103.58419770002365,,,,,,,,,,,,,,,,103.56861560000107,103.58419770002365,104.28347620007116,104.28347620007116,104.7831456999993,104.76715159998275,104.76777120004408,104.7831456999993,104.98305270005949,105.18298829998821,105.18298829998821,105.45066239999142,space,1,0.25971329992171377,None,105.45509449997917,105.96550220006611,106.94887339998968,,,106.96468630002346,,,,,,,,,,,,,,,007,002,2025-05-01_20h03.09.642,Cued GoNogo Task,2024.2.4,60.04148867704207,2025-05-01 20h03.21.591103 +0200,
block/CondBlock1.xlsx,You are about to start a block of type 1 trials.,25,25,0,Go,Go,0.15,0.2,0.05,space,blue,vertical,space,0.8979156999848783,None,space,1,0.21694780001416802,None,,,,0,0,0,0,0,25,25,25,106.96468630002346,,,,,,,,,,,,,,,,106.94912540004589,106.96468630002346,107.6642017000122,107.6642017000122,108.16372489999048,108.14823609997984,108.14883249998093,108.16372489999048,108.31349950004369,108.51361650007311,108.51361650007311,108.74753849999979,space,1,0.21694780001416802,None,108.75126519997139,109.26298720005434,110.26223680004478,,,,,,,,,,,,,,,,,,007,002,2025-05-01_20h03.09.642,Cued GoNogo Task,2024.2.4,60.04148867704207,2025-05-01 20h03.21.591103 +0200,
block/CondBlock1.xlsx,You are about to start a block of type 1 trials.,26,26,0,NoGo,NoGo,0.2,0.2,0.05,none,blue,vertical,space,0.8979156999848783,None,None,1,,,,,,0,0,0,0,0,26,26,26,110.27872629999183,,,,,,,,,,,,,,,,110.26259579998441,110.27872629999183,110.96151639998425,110.97815570002422,111.4610242000781,111.445583099965,111.44651749997865,111.4610242000781,111.6608516999986,111.86091990000568,111.86091990000568,112.34415160003118,None,1,,,112.34629060002044,112.84325829998124,113.82677829999011,112.36046650004573,112.36046650004573,113.8422740000533,,,,,,,,,,,,,,,007,002,2025-05-01_20h03.09.642,Cued GoNogo Task,2024.2.4,60.04148867704207,2025-05-01 20h03.21.591103 +0200,
block/CondBlock1.xlsx,You are about to start a block of type 1 trials.,27,27,0,Go,Go,0.29,0.05,0.2,space,green,horizontal,space,0.8979156999848783,None,space,1,0.2856548000127077,None,,,,0,0,0,0,0,27,27,27,113.8422740000533,,,,,,,,,,,,,,,,113.82703460007906,113.85903619998135,114.55844479997177,114.55844479997177,115.05810460005887,115.04234809998889,115.04307850007899,115.05810460005887,115.35779530007858,115.54110320005566,115.54110320005566,115.84192969999276,space,1,0.2856548000127077,None,115.84618460002821,116.35703700000886,117.34024020005018,,,117.35624950006604,,,,,,,,,,,,,,,007,002,2025-05-01_20h03.09.642,Cued GoNogo Task,2024.2.4,60.04148867704207,2025-05-01 20h03.21.591103 +0200,
block/CondBlock1.xlsx,You are about to start a block of type 1 trials.,28,28,0,Go,Go,0.24,0.2,0.05,space,blue,vertical,space,0.8979156999848783,None,space,1,0.2382107999874279,None,,,,0,0,0,0,0,28,28,28,117.35624950006604,,,,,,,,,,,,,,,,117.3405025000684,117.35624950006604,118.05570010002702,118.05570010002702,118.55518080003094,118.539076999994,118.53956329997163,118.55518080003094,118.80507570004556,118.98815210000612,118.98815210000612,119.23964949999936,space,1,0.2382107999874279,None,119.24403100006748,119.75421579997055,120.73789270000998,,,120.75333950005006,,,,,,,,,,,,,,,007,002,2025-05-01_20h03.09.642,Cued GoNogo Task,2024.2.4,60.04148867704207,2025-05-01 20h03.21.591103 +0200,
block/CondBlock1.xlsx,You are about to start a block of type 1 trials.,29,29,0,Go,Go,0.15,0.05,0.2,space,green,horizontal,space,0.8979156999848783,None,space,1,0.22776859998703003,None,,,,0,0,0,0,0,29,29,29,120.75333950005006,,,,,,,,,,,,,,,,120.73825140006375,120.75333950005006,121.45304100005887,121.45304100005887,121.9523433999857,121.93676279997453,121.93749310006388,121.9523433999857,122.10231770004611,122.30212890007533,122.30212890007533,122.53642989997752,space,1,0.22776859998703003,None,122.54006839997601,123.05153539997991,124.03476179996505,,,124.05068820004817,,,,,,,,,,,,,,,007,002,2025-05-01_20h03.09.642,Cued GoNogo Task,2024.2.4,60.04148867704207,2025-05-01 20h03.21.591103 +0200,
block/CondBlock1.xlsx,You are about to start a block of type 1 trials.,30,30,0,Go,Go,0.23,0.2,0.05,space,green,vertical,space,0.8979156999848783,None,space,1,0.25652059994172305,None,,,,0,0,0,0,0,30,30,30,124.05068820004817,,,,,,,,,,,,,,,,124.03509400004987,124.05068820004817,124.75008849997539,124.75008849997539,125.24955229996704,125.23386350006331,125.23456650006119,125.24955229996704,125.48275940003805,125.66605510003865,125.66605510003865,125.93411350005772,space,1,0.25652059994172305,None,125.93816770007834,126.44876589998603,127.43228090007324,,,127.44779710005969,,,,,,,,,,,,,,,007,002,2025-05-01_20h03.09.642,Cued GoNogo Task,2024.2.4,60.04148867704207,2025-05-01 20h03.21.591103 +0200,
block/CondBlock1.xlsx,You are about to start a block of type 1 trials.,31,31,0,Go,Go,0.28,0.2,0.05,space,green,vertical,space,0.8979156999848783,None,space,1,0.2505549999186769,None,,,,0,0,0,0,0,31,31,31,127.44779710005969,,,,,,,,,,,,,,,,127.43265520001296,127.44779710005969,128.14712830004282,128.14712830004282,128.64680610003415,128.6309154999908,128.63145250000525,128.64680610003415,128.9301909999922,129.1131669000024,129.1131669000024,129.38094469998032,space,1,0.2505549999186769,None,129.3860219999915,129.89574100007303,130.8794535000343,,,130.89520120003726,,,,,,,,,,,,,,,007,002,2025-05-01_20h03.09.642,Cued GoNogo Task,2024.2.4,60.04148867704207,2025-05-01 20h03.21.591103 +0200,
block/CondBlock1.xlsx,You are about to start a block of type 1 trials.,32,32,0,Go,Go,0.19,0.2,0.05,space,green,vertical,space,0.8979156999848783,None,space,1,0.3660483999410644,None,,,,0,0,0,0,0,32,32,32,130.89520120003726,,,,,,,,,,,,,,,,130.87977490003686,130.89520120003726,131.59466130007058,131.59466130007058,132.09408259997144,132.07845140004065,132.07927630003542,132.09408259997144,132.2938936999999,132.47705740004312,132.47705740004312,132.84564109996427,space,1,0.3660483999410644,None,132.84956060000695,133.35960329999216,134.34302849997766,,,134.35894399997778,,,,,,,,,,,,,,,007,002,2025-05-01_20h03.09.642,Cued GoNogo Task,2024.2.4,60.04148867704207,2025-05-01 20h03.21.591103 +0200,
block/CondBlock1.xlsx,You are about to start a block of type 1 trials.,33,33,0,Go,Go,0.12,0.2,0.05,space,green,vertical,space,0.8979156999848783,None,space,1,0.3441697999369353,None,,,,0,0,0,0,0,33,33,33,134.35894399997778,,,,,,,,,,,,,,,,134.34334080002736,134.35894399997778,135.05837910005357,135.05837910005357,135.55778260005172,135.5420376000693,135.54281810007524,135.55778260005172,135.691234500031,135.87437940004747,135.87437940004747,136.22534690005705,space,1,0.3441697999369353,None,136.22968019999098,136.74033780000173,137.7239486000035,,,137.73950979998335,,,,,,,,,,,,,,,007,002,2025-05-01_20h03.09.642,Cued GoNogo Task,2024.2.4,60.04148867704207,2025-05-01 20h03.21.591103 +0200,
block/CondBlock1.xlsx,You are about to start a block of type 1 trials.,34,34,0,Go,Go,0.18,0.2,0.05,space,blue,vertical,space,0.8979156999848783,None,space,1,0.3139150000642985,None,,,,0,0,0,0,0,34,34,34,137.73950979998335,,,,,,,,,,,,,,,,137.72431429999415,137.73950979998335,138.43892200000118,138.43892200000118,138.9382423000643,138.9224534999812,138.923051699996,138.9382423000643,139.12156900006812,139.30477070005145,139.30477070005145,139.62275280000176,space,1,0.3139150000642985,None,139.6276817000471,140.13766280002892,141.1211125999689,,,141.13667699997313,,,,,,,,,,,,,,,007,002,2025-05-01_20h03.09.642,Cued GoNogo Task,2024.2.4,60.04148867704207,2025-05-01 20h03.21.591103 +0200,
block/CondBlock1.xlsx,You are about to start a block of type 1 trials.,35,35,0,Go,Go,0.21,0.2,0.05,space,blue,vertical,space,0.8979156999848783,None,space,1,0.3001200999133289,None,,,,0,0,0,0,0,35,35,35,141.13667699997313,,,,,,,,,,,,,,,,141.12137150007766,141.13667699997313,141.8360304000089,141.8360304000089,142.3355163000524,142.31985860003624,142.320972800022,142.3355163000524,142.55203730007634,142.73531070002355,142.73531070002355,143.03814449999481,space,1,0.3001200999133289,None,143.04233570001088,143.55143880005926,144.53460470004939,,,144.55036610004026,,,,,,,,,,,,,,,007,002,2025-05-01_20h03.09.642,Cued GoNogo Task,2024.2.4,60.04148867704207,2025-05-01 20h03.21.591103 +0200,
block/CondBlock1.xlsx,You are about to start a block of type 1 trials.,36,36,0,Go,Go,0.2,0.2,0.05,space,green,vertical,space,0.8979156999848783,None,space,1,0.37410630006343126,None,,,,0,0,0,0,0,36,36,36,144.55036610004026,,,,,,,,,,,,,,,,144.53489530005027,144.55036610004026,145.24989450001158,145.24989450001158,145.74943119997624,145.7334149000235,145.73402660002466,145.74943119997624,145.94937829999253,146.1491203000769,146.1491203000769,146.53344510006718,space,1,0.37410630006343126,None,146.53736660000868,147.04845940007363,148.03171530005056,,,148.04757010005414,,,,,,,,,,,,,,,007,002,2025-05-01_20h03.09.642,Cued GoNogo Task,2024.2.4,60.04148867704207,2025-05-01 20h03.21.591103 +0200,
block/CondBlock1.xlsx,You are about to start a block of type 1 trials.,37,37,0,Go,Go,0.45,0.05,0.2,space,blue,horizontal,space,0.8979156999848783,None,space,1,0.3707521000178531,None,,,,0,0,0,0,0,37,37,37,148.04757010005414,,,,,,,,,,,,,,,,148.0319739000406,148.04757010005414,148.7470412000548,148.7470412000548,149.2466204999946,149.23086260003038,149.2315502000274,149.2466204999946,149.69636589998845,149.89617169997655,149.89617169997655,150.28007310000248,space,1,0.3707521000178531,None,150.2827690000413,150.79546100005973,151.77843539998867,,,151.7945782999741,,,,,,,,,,,,,,,007,002,2025-05-01_20h03.09.642,Cued GoNogo Task,2024.2.4,60.04148867704207,2025-05-01 20h03.21.591103 +0200,
block/CondBlock1.xlsx,You are about to start a block of type 1 trials.,38,38,0,Go,Go,0.13,0.05,0.2,space,blue,horizontal,space,0.8979156999848783,None,space,1,0.32472979999147356,None,,,,0,0,0,0,0,38,38,38,151.7945782999741,,,,,,,,,,,,,,,,151.77870969998185,151.7945782999741,152.49416490003932,152.49416490003932,152.99343100003898,152.97741459996905,152.97784880001564,152.99343100003898,153.12672419997398,153.30990770005155,153.30990770005155,153.6442495000083,space,1,0.32472979999147356,None,153.64849230006803,154.15919879998546,155.14273560000584,,,155.15836920007132,,,,,,,,,,,,,,,007,002,2025-05-01_20h03.09.642,Cued GoNogo Task,2024.2.4,60.04148867704207,2025-05-01 20h03.21.591103 +0200,
block/CondBlock1.xlsx,You are about to start a block of type 1 trials.,39,39,0,Go,Go,0.46,0.2,0.05,space,blue,vertical,space,0.8979156999848783,None,space,1,0.30070700007490814,None,,,,0,0,0,0,0,39,39,39,155.15836920007132,,,,,,,,,,,,,,,,155.14316410000902,155.15836920007132,155.85775129997637,155.85775129997637,156.35753669997212,156.3417415000731,156.34248049999587,156.35753669997212,156.8236317000119,157.00681160006206,157.00681160006206,157.32442119996995,space,1,0.30070700007490814,None,157.3278857000405,157.83970400004182,158.8230496000033,,,158.8387790999841,,,,,,,,,,,,,,,007,002,2025-05-01_20h03.09.642,Cued GoNogo Task,2024.2.4,60.04148867704207,2025-05-01 20h03.21.591103 +0200,
block/CondBlock1.xlsx,You are about to start a block of type 1 trials.,40,40,0,Go,Go,0.29,0.2,0.05,space,blue,vertical,space,0.8979156999848783,None,None,0,,,,,,0,0,0,0,0,40,40,40,158.8387790999841,,,,,,,,,,,,,,,,158.82338890002575,158.8387790999841,159.538102600025,159.538102600025,160.0375950000016,160.02182350005023,160.0224223000696,160.0375950000016,160.33750380005222,160.52068449999206,160.52068449999206,161.00430320005398,None,0,,,161.00903980003204,161.5199243000243,162.5030579000013,161.02020480006468,161.02020480006468,162.51899840007536,,,,,,,,,,,,,,,007,002,2025-05-01_20h03.09.642,Cued GoNogo Task,2024.2.4,60.04148867704207,2025-05-01 20h03.21.591103 +0200,
block/CondBlock1.xlsx,You are about to start a block of type 1 trials.,41,41,0,Go,Go,0.22,0.2,0.05,space,blue,vertical,space,0.8979156999848783,None,space,1,0.4129237999441102,None,,,,0,0,0,0,0,41,41,41,162.51899840007536,,,,,,,,,,,,,,,,162.50332580006216,162.51899840007536,163.2184728999855,163.2184728999855,163.71806870005094,163.70211800001562,163.70273370004725,163.71806870005094,163.9513390000211,164.13436510006431,164.13436510006431,164.55164339998737,space,1,0.4129237999441102,None,164.5550967999734,165.06694429996423,166.05011800001375,,,166.06608070002403,,,,,,,,,,,,,,,007,002,2025-05-01_20h03.09.642,Cued GoNogo Task,2024.2.4,60.04148867704207,2025-05-01 20h03.21.591103 +0200,
block/CondBlock1.xlsx,You are about to start a block of type 1 trials.,42,42,0,Go,Go,0.49,0.2,0.05,space,blue,vertical,space,0.8979156999848783,None,space,1,0.2623668001033366,None,,,,0,0,0,0,0,42,42,42,166.06608070002403,,,,,,,,,,,,,,,,166.0503678000532,166.06608070002403,166.76552939997055,166.76552939997055,167.26514719997067,167.24941260006744,167.25009460002184,167.26514719997067,167.76478059997316,167.94776660006028,167.94776660006028,168.21535770001356,space,1,0.2623668001033366,None,168.21882549999282,168.73060700006317,169.7141464999877,,,169.72967570007313,,,,,,,,,,,,,,,007,002,2025-05-01_20h03.09.642,Cued GoNogo Task,2024.2.4,60.04148867704207,2025-05-01 20h03.21.591103 +0200,
block/CondBlock1.xlsx,You are about to start a block of type 1 trials.,43,43,0,Go,Go,0.2,0.2,0.05,space,blue,vertical,space,0.8979156999848783,None,space,1,0.401651700027287,None,,,,0,0,0,0,0,43,43,43,169.72967570007313,,,,,,,,,,,,,,,,169.71445600001607,169.72967570007313,170.4291993000079,170.4291993000079,170.92872600001283,170.91321939998306,170.91383059998043,170.92872600001283,171.12859079998452,171.328612399986,171.328612399986,171.7458762000315,space,1,0.401651700027287,None,171.74968510004692,172.26120710000396,173.24420900002588,,,173.26007069996558,,,,,,,,,,,,,,,007,002,2025-05-01_20h03.09.642,Cued GoNogo Task,2024.2.4,60.04148867704207,2025-05-01 20h03.21.591103 +0200,
block/CondBlock1.xlsx,You are about to start a block of type 1 trials.,44,44,0,Go,Go,0.3,0.05,0.2,space,blue,horizontal,space,0.8979156999848783,None,space,1,0.3570005999645218,None,,,,0,0,0,0,0,44,44,44,173.26007069996558,,,,,,,,,,,,,,,,173.24443880002946,173.26007069996558,173.95965330000035,173.95965330000035,174.45920100004878,174.44329049997032,174.4441105000442,174.45920100004878,174.7589468000224,174.9587628999725,174.9587628999725,175.32662120007444,space,1,0.3570005999645218,None,175.33047739998437,175.84134330006782,176.8246446000412,,,176.84050140006002,,,,,,,,,,,,,,,007,002,2025-05-01_20h03.09.642,Cued GoNogo Task,2024.2.4,60.04148867704207,2025-05-01 20h03.21.591103 +0200,
block/CondBlock1.xlsx,You are about to start a block of type 1 trials.,45,45,0,NoGo,NoGo,0.21,0.05,0.2,none,green,horizontal,space,0.8979156999848783,None,space,0,0.37883649999275804,None,,,,0,0,0,0,0,45,45,45,176.84050140006002,,,,,,,,,,,,,,,,176.82489030004945,176.84050140006002,177.5400714999996,177.5400714999996,178.03953870001715,178.02387160004582,178.02457580005284,178.03953870001715,178.25618969998322,178.43921350000892,178.43921350000892,178.82335429999512,space,0,0.37883649999275804,None,178.82881730003282,179.33847239997704,180.32165260007605,,,180.33780690003186,,,,,,,,,,,,,,,007,002,2025-05-01_20h03.09.642,Cued GoNogo Task,2024.2.4,60.04148867704207,2025-05-01 20h03.21.591103 +0200,
block/CondBlock1.xlsx,You are about to start a block of type 1 trials.,46,46,0,NoGo,NoGo,0.45,0.05,0.2,none,blue,horizontal,space,0.8979156999848783,None,None,1,,,,,,0,0,0,0,0,46,46,46,180.33780690003186,,,,,,,,,,,,,,,,180.3218975000782,180.33780690003186,181.0372015000321,181.0372015000321,181.53664980002213,181.5214391000336,181.5222268999787,181.53664980002213,181.9864896000363,182.1862883999711,182.1862883999711,182.6697659000056,None,1,,,182.67201590002514,183.18529010005295,184.16852150007617,182.68569209997077,182.68569209997077,184.18460799998138,,,,,,,,,,,,,,,007,002,2025-05-01_20h03.09.642,Cued GoNogo Task,2024.2.4,60.04148867704207,2025-05-01 20h03.21.591103 +0200,
block/CondBlock1.xlsx,You are about to start a block of type 1 trials.,47,47,0,Go,Go,0.24,0.05,0.2,space,green,horizontal,space,0.8979156999848783,None,space,1,0.34603250003419816,None,,,,0,0,0,0,0,47,47,47,184.18460799998138,,,,,,,,,,,,,,,,184.16878160007764,184.18460799998138,184.8839765000157,184.8839765000157,185.383483099984,185.36811849998776,185.36876089998987,185.383483099984,185.63325810001697,185.81665320007596,185.81665320007596,186.1679812000366,space,1,0.34603250003419816,None,186.172316399985,186.6825461999979,187.66588450002018,,,187.68178169999737,,,,,,,,,,,,,,,007,002,2025-05-01_20h03.09.642,Cued GoNogo Task,2024.2.4,60.04148867704207,2025-05-01 20h03.21.591103 +0200,
block/CondBlock1.xlsx,You are about to start a block of type 1 trials.,48,48,0,NoGo,NoGo,0.15,0.2,0.05,none,blue,vertical,space,0.8979156999848783,None,None,1,,,,,,0,0,0,0,0,48,48,48,187.68178169999737,,,,,,,,,,,,,,,,187.66616759996396,187.68178169999737,188.3811871999642,188.3811871999642,188.88088379998226,188.86466510000173,188.8653565000277,188.88088379998226,189.03071500000078,189.23044050007593,189.23044050007593,189.71436029998586,None,1,,,189.7180706000654,190.22952729999088,191.21269750001375,189.72984669997822,189.72984669997822,191.22869969997555,,,,,,,,,,,,,,,007,002,2025-05-01_20h03.09.642,Cued GoNogo Task,2024.2.4,60.04148867704207,2025-05-01 20h03.21.591103 +0200,
block/CondBlock1.xlsx,You are about to start a block of type 1 trials.,49,49,0,Go,Go,0.12,0.05,0.2,space,blue,horizontal,space,0.8979156999848783,None,space,1,0.4342688999604434,None,,,,0,0,0,0,0,49,49,49,191.22869969997555,,,,,,,,,,,,,,,,191.21290470007807,191.22869969997555,191.92818859999534,191.92818859999534,192.42775050003547,192.41199980000965,192.41275969997514,192.42775050003547,192.56109189998824,192.744147600024,192.744147600024,193.1953569999896,space,1,0.4342688999604434,None,193.19968540000264,193.71024450007826,194.69345799996518,,,194.70928299997468,,,,,,,,,,,,,,,007,002,2025-05-01_20h03.09.642,Cued GoNogo Task,2024.2.4,60.04148867704207,2025-05-01 20h03.21.591103 +0200,
block/CondBlock1.xlsx,You are about to start a block of type 1 trials.,50,50,0,Go,Go,0.22,0.2,0.05,space,green,vertical,space,0.8979156999848783,None,space,1,0.42145899997558445,None,,,,0,0,0,0,0,50,50,50,194.70928299997468,,,,,,,,,,,,,,,,194.69378430000506,194.70928299997468,195.40863890002947,195.40863890002947,195.90814980003051,195.8922485000221,195.89272660005372,195.90814980003051,196.14144190005027,196.32465510000475,196.32465510000475,196.75858420005534,space,1,0.42145899997558445,None,196.76171470002737,197.27389670000412,198.25699660007376,,,198.2729295999743,,,,,,,,,,,,,,,007,002,2025-05-01_20h03.09.642,Cued GoNogo Task,2024.2.4,60.04148867704207,2025-05-01 20h03.21.591103 +0200,
block/CondBlock1.xlsx,You are about to start a block of type 1 trials.,51,51,0,Go,Go,0.28,0.05,0.2,space,green,horizontal,space,0.8979156999848783,None,space,1,0.3118761999066919,None,,,,0,0,0,0,0,51,51,51,198.2729295999743,,,,,,,,,,,,,,,,198.2572327000089,198.2729295999743,198.9723913000198,198.9723913000198,199.47197159996722,199.45580370002426,199.45634779997636,199.47197159996722,199.7550674000522,199.93827270006295,199.93827270006295,200.25638220005203,space,1,0.3118761999066919,None,200.2604932000395,200.77104949997738,201.75436000002082,,,201.77021190000232,,,,,,,,,,,,,,,007,002,2025-05-01_20h03.09.642,Cued GoNogo Task,2024.2.4,60.04148867704207,2025-05-01 20h03.21.591103 +0200,
block/CondBlock1.xlsx,You are about to start a block of type 1 trials.,52,52,0,Go,Go,0.23,0.2,0.05,space,green,vertical,space,0.8979156999848783,None,space,1,0.2890970000298694,None,,,,0,0,0,0,0,52,52,52,201.77021190000232,,,,,,,,,,,,,,,,201.75469370000064,201.77021190000232,202.46953330002725,202.46953330002725,202.96911180007737,202.95310180005617,202.95381079998333,202.96911180007737,203.20230920007452,203.40207529999316,203.40207529999316,203.70293570007198,space,1,0.2890970000298694,None,203.70693310000934,204.21798940002918,205.2013777999673,,,205.21714960003737,,,,,,,,,,,,,,,007,002,2025-05-01_20h03.09.642,Cued GoNogo Task,2024.2.4,60.04148867704207,2025-05-01 20h03.21.591103 +0200,
block/CondBlock1.xlsx,You are about to start a block of type 1 trials.,53,53,0,Go,Go,0.22,0.05,0.2,space,green,horizontal,space,0.8979156999848783,None,space,1,0.30719030008185655,None,,,,0,0,0,0,0,53,53,53,205.21714960003737,,,,,,,,,,,,,,,,205.20171260007191,205.21714960003737,205.9166863000719,205.9166863000719,206.416324299993,206.40073870006017,206.4016448999755,206.416324299993,206.64948650007136,206.83274149999488,206.83274149999488,207.15059820003808,space,1,0.30719030008185655,None,207.1556332000764,207.66519610001706,208.6486317999661,,,208.66457000002265,,,,,,,,,,,,,,,007,002,2025-05-01_20h03.09.642,Cued GoNogo Task,2024.2.4,60.04148867704207,2025-05-01 20h03.21.591103 +0200,
block/CondBlock1.xlsx,You are about to start a block of type 1 trials.,54,54,0,NoGo,NoGo,0.14,0.05,0.2,none,green,horizontal,space,0.8979156999848783,None,None,1,,,,,,0,0,0,0,0,54,54,54,208.66457000002265,,,,,,,,,,,,,,,,208.64887649996672,208.66457000002265,209.36391169996932,209.36391169996932,209.86344930005725,209.8474586000666,209.8480547000654,209.86344930005725,210.01334120007232,210.19654480007011,210.19654480007011,210.67988010006957,None,1,,,210.68208890000824,211.17913160007447,212.1621552000288,210.6959407000104,210.6959407000104,212.1782613999676,,,,,,,,,,,,,,,007,002,2025-05-01_20h03.09.642,Cued GoNogo Task,2024.2.4,60.04148867704207,2025-05-01 20h03.21.591103 +0200,
block/CondBlock1.xlsx,You are about to start a block of type 1 trials.,55,55,0,Go,Go,0.15,0.2,0.05,space,blue,vertical,space,0.8979156999848783,None,space,1,0.2671015999512747,None,,,,0,0,0,0,0,55,55,55,212.1782613999676,,,,,,,,,,,,,,,,212.1624046000652,212.1948495999677,212.89415770000778,212.89415770000778,213.39400720002595,213.3780905000167,213.37876250001136,213.39400720002595,213.54359530005604,213.74349440005608,213.74349440005608,214.02799510001205,space,1,0.2671015999512747,None,214.03269360004924,214.54297900001984,215.52621490007732,,,215.5420288000023,,,,,,,,,,,,,,,007,002,2025-05-01_20h03.09.642,Cued GoNogo Task,2024.2.4,60.04148867704207,2025-05-01 20h03.21.591103 +0200,
block/CondBlock1.xlsx,You are about to start a block of type 1 trials.,56,56,0,Go,Go,0.47,0.2,0.05,space,blue,vertical,space,0.8979156999848783,None,space,1,0.23479979997500777,None,,,,0,0,0,0,0,56,56,56,215.5420288000023,,,,,,,,,,,,,,,,215.52648990007583,215.5420288000023,216.2413945000153,216.2413945000153,216.74124700005632,216.72542500006966,216.72624069999438,216.74124700005632,217.2240362999728,217.40721370000392,217.40721370000392,217.65875659999438,space,1,0.23479979997500777,None,217.6643127000425,218.17342260002624,219.15667409996968,,,219.17232870007865,,,,,,,,,,,,,,,007,002,2025-05-01_20h03.09.642,Cued GoNogo Task,2024.2.4,60.04148867704207,2025-05-01 20h03.21.591103 +0200,
block/CondBlock1.xlsx,You are about to start a block of type 1 trials.,57,57,0,NoGo,NoGo,0.42,0.2,0.05,none,green,vertical,space,0.8979156999848783,None,None,1,,,,,,0,0,0,0,0,57,57,57,219.17232870007865,,,,,,,,,,,,,,,,219.15700180002023,219.17232870007865,219.87195190007333,219.87195190007333,220.37143649999052,220.35581510001794,220.3565329000121,220.37143649999052,220.80426910007372,220.98763460002374,220.98763460002374,221.47111819998827,None,1,,,221.47291660006158,221.9866914000595,222.97027040005196,221.48716430005152,221.48716430005152,222.98578810004983,,,,,,,,,,,,,,,007,002,2025-05-01_20h03.09.642,Cued GoNogo Task,2024.2.4,60.04148867704207,2025-05-01 20h03.21.591103 +0200,
block/CondBlock1.xlsx,You are about to start a block of type 1 trials.,58,58,0,Go,Go,0.22,0.05,0.2,space,green,horizontal,space,0.8979156999848783,None,space,1,0.37700209999457,None,,,,0,0,0,0,0,58,58,58,222.98578810004983,,,,,,,,,,,,,,,,222.97047399997246,222.98578810004983,223.68541759997606,223.68541759997606,224.1852060999954,224.16896270005964,224.1696229999652,224.1852060999954,224.41808720002882,224.6011777999811,224.6011777999811,224.98546820005868,space,1,0.37700209999457,None,224.9895225999644,225.50056770001538,226.48353349999525,,,226.49970960000064,,,,,,,,,,,,,,,007,002,2025-05-01_20h03.09.642,Cued GoNogo Task,2024.2.4,60.04148867704207,2025-05-01 20h03.21.591103 +0200,
block/CondBlock1.xlsx,You are about to start a block of type 1 trials.,59,59,0,Go,Go,0.3,0.2,0.05,space,blue,vertical,space,0.8979156999848783,None,space,1,0.3642916999524459,None,,,,0,0,0,0,0,59,59,59,226.49970960000064,,,,,,,,,,,,,,,,226.48372130002826,226.49970960000064,227.19911659997888,227.19911659997888,227.6988546999637,227.68344150006305,227.68437709996942,227.6988546999637,227.99848150007892,228.19836150004994,228.19836150004994,228.566087000072,space,1,0.3642916999524459,None,228.56984400004148,229.08093910000753,230.064160500071,,,230.08015529997647,,,,,,,,,,,,,,,007,002,2025-05-01_20h03.09.642,Cued GoNogo Task,2024.2.4,60.04148867704207,2025-05-01 20h03.21.591103 +0200,
block/CondBlock1.xlsx,You are about to start a block of type 1 trials.,60,60,0,NoGo,NoGo,0.24,0.2,0.05,none,blue,vertical,space,0.8979156999848783,None,None,1,,,,,,0,0,0,0,0,60,60,60,230.08015529997647,,,,,,,,,,,,,,,,230.06441079999786,230.08015529997647,230.77961750002578,230.77961750002578,231.27914340002462,231.2634340999648,231.26399750006385,231.27914340002462,231.52879670006223,231.7120454000542,231.7120454000542,232.19594880007207,None,1,,,232.1986250000773,232.7112999999663,233.6946282000281,232.21158180001657,232.21158180001657,233.7104092000518,,,,,,,,,,,,,,,007,002,2025-05-01_20h03.09.642,Cued GoNogo Task,2024.2.4,60.04148867704207,2025-05-01 20h03.21.591103 +0200,
block/CondBlock1.xlsx,You are about to start a block of type 1 trials.,61,61,0,NoGo,NoGo,0.1,0.2,0.05,none,green,vertical,space,0.8979156999848783,None,None,1,,,,,,0,0,0,0,0,61,61,61,233.7104092000518,,,,,,,,,,,,,,,,233.69488470000215,233.7104092000518,234.40997579996474,234.40997579996474,234.90944750001654,234.8933867000742,234.89392910001334,234.90944750001654,235.00950569997076,235.2092052999651,235.2092052999651,235.6927206000546,None,1,,,235.693142300006,236.19181850005407,237.17515869997442,235.70888869999908,235.70888869999908,237.1907979999669,,,,,,,,,,,,,,,007,002,2025-05-01_20h03.09.642,Cued GoNogo Task,2024.2.4,60.04148867704207,2025-05-01 20h03.21.591103 +0200,
block/CondBlock1.xlsx,You are about to start a block of type 1 trials.,62,62,0,Go,Go,0.45,0.05,0.2,space,blue,horizontal,space,0.8979156999848783,None,space,1,0.3000692999921739,None,,,,0,0,0,0,0,62,62,62,237.1907979999669,,,,,,,,,,,,,,,,237.17555270006415,237.20770610007457,237.90712480002549,237.90712480002549,238.40658690000419,238.39059149997775,238.39133939996827,238.40658690000419,238.85628209996503,239.05605810007546,239.05605810007546,239.35837230004836,space,1,0.3000692999921739,None,239.36192799999844,239.8720578000648,240.85536290006712,,,240.87134690000676,,,,,,,,,,,,,,,007,002,2025-05-01_20h03.09.642,Cued GoNogo Task,2024.2.4,60.04148867704207,2025-05-01 20h03.21.591103 +0200,
block/CondBlock1.xlsx,You are about to start a block of type 1 trials.,63,63,0,Go,Go,0.1,0.05,0.2,space,green,horizontal,space,0.8979156999848783,None,space,1,0.2799910999601707,None,,,,0,0,0,0,0,63,63,63,240.87134690000676,,,,,,,,,,,,,,,,240.85566680005286,240.87134690000676,241.5708173000021,241.5708173000021,242.07031990005635,242.05439870001283,242.0550153000513,242.07031990005635,242.17035699996632,242.37022759998217,242.37022759998217,242.65445689996704,space,1,0.2799910999601707,None,242.6603094000602,243.16936659999192,244.15275260002818,,,244.16864010004792,,,,,,,,,,,,,,,007,002,2025-05-01_20h03.09.642,Cued GoNogo Task,2024.2.4,60.04148867704207,2025-05-01 20h03.21.591103 +0200,
block/CondBlock1.xlsx,You are about to start a block of type 1 trials.,64,64,0,Go,Go,0.19,0.05,0.2,space,blue,horizontal,space,0.8979156999848783,None,space,1,0.2922889000037685,None,,,,0,0,0,0,0,64,64,64,244.16864010004792,,,,,,,,,,,,,,,,244.15304030000698,244.16864010004792,244.8678320000181,244.8678320000181,245.3675086000003,245.351675300044,245.35236270003952,245.3675086000003,245.567459300044,245.75042799999937,245.75042799999937,246.05131280003116,space,1,0.2922889000037685,None,246.05462169996463,246.56645739998203,247.54976560000796,,,247.56575639999937,,,,,,,,,,,,,,,007,002,2025-05-01_20h03.09.642,Cued GoNogo Task,2024.2.4,60.04148867704207,2025-05-01 20h03.21.591103 +0200,
block/CondBlock1.xlsx,You are about to start a block of type 1 trials.,65,65,0,Go,Go,0.21,0.2,0.05,space,blue,vertical,space,0.8979156999848783,None,space,1,0.33355660003144294,None,,,,0,0,0,0,0,65,65,65,247.56575639999937,,,,,,,,,,,,,,,,247.55000909999944,247.56575639999937,248.26522870000917,248.26522870000917,248.7646380000515,248.74895969999488,248.74993960000575,248.7646380000515,248.9813391000498,249.16450610000174,249.16450610000174,249.51528549997602,space,1,0.33355660003144294,None,249.5190189999994,250.0303644000087,251.01357529999223,,,251.0295450000558,,,,,,,,,,,,,,,007,002,2025-05-01_20h03.09.642,Cued GoNogo Task,2024.2.4,60.04148867704207,2025-05-01 20h03.21.591103 +0200,
block/CondBlock1.xlsx,You are about to start a block of type 1 trials.,66,66,0,Go,Go,0.18,0.05,0.2,space,blue,horizontal,space,0.8979156999848783,None,space,1,0.4236947000026703,None,,,,0,0,0,0,0,66,66,66,251.0295450000558,,,,,,,,,,,,,,,,251.0138108000392,251.0295450000558,251.7291772000026,251.7291772000026,252.22849500004668,252.21289960003924,252.2137619999703,252.22849500004668,252.41171630006284,252.59495569998398,252.59495569998398,253.02907160005998,space,1,0.4236947000026703,None,253.03433860000223,253.5442231000634,254.5277704000473,,,254.5433728999924,,,,,,,,,,,,,,,007,002,2025-05-01_20h03.09.642,Cued GoNogo Task,2024.2.4,60.04148867704207,2025-05-01 20h03.21.591103 +0200,
block/CondBlock1.xlsx,You are about to start a block of type 1 trials.,67,67,0,Go,Go,0.29,0.2,0.05,space,green,vertical,space,0.8979156999848783,None,space,1,0.3615661000367254,None,,,,0,0,0,0,0,67,67,67,254.5433728999924,,,,,,,,,,,,,,,,254.5280815999722,254.5433728999924,255.24269169999752,255.24269169999752,255.74212549999356,255.72685370000545,255.72752319998108,255.74212549999356,256.04220999998506,256.22525370004587,256.22525370004587,256.59250050003175,space,1,0.3615661000367254,None,256.5959022999741,257.1078925000038,258.0911786999786,,,258.1070988000138,,,,,,,,,,,,,,,007,002,2025-05-01_20h03.09.642,Cued GoNogo Task,2024.2.4,60.04148867704207,2025-05-01 20h03.21.591103 +0200,
block/CondBlock1.xlsx,You are about to start a block of type 1 trials.,68,68,0,NoGo,NoGo,0.24,0.2,0.05,none,blue,vertical,space,0.8979156999848783,None,None,1,,,,,,0,0,0,0,0,68,68,68,258.1070988000138,,,,,,,,,,,,,,,,258.0914518000791,258.1070988000138,258.8065652999794,258.8065652999794,259.30619959998876,259.29013380000833,259.2908677000087,259.30619959998876,259.5558794999961,259.73899940005504,259.73899940005504,260.2228702000575,None,1,,,260.22574759996496,260.7383107000496,261.72133970004506,260.23849540005904,260.23849540005904,261.73749430000316,,,,,,,,,,,,,,,007,002,2025-05-01_20h03.09.642,Cued GoNogo Task,2024.2.4,60.04148867704207,2025-05-01 20h03.21.591103 +0200,
block/CondBlock1.xlsx,You are about to start a block of type 1 trials.,69,69,0,Go,Go,0.27,0.05,0.2,space,green,horizontal,space,0.8979156999848783,None,space,1,0.32773139991331846,None,,,,0,0,0,0,0,69,69,69,261.73749430000316,,,,,,,,,,,,,,,,261.7215897999704,261.73749430000316,262.43698840006255,262.43698840006255,262.9366430999944,262.9205392000731,262.92118980002124,262.9366430999944,263.2196866000304,263.40264370001387,263.40264370001387,263.73694640002213,space,1,0.32773139991331846,None,263.7404008000158,264.25205340003595,265.2353818999836,,,265.25116910005454,,,,,,,,,,,,,,,007,002,2025-05-01_20h03.09.642,Cued GoNogo Task,2024.2.4,60.04148867704207,2025-05-01 20h03.21.591103 +0200,
block/CondBlock1.xlsx,You are about to start a block of type 1 trials.,70,70,0,Go,Go,0.25,0.2,0.05,space,green,vertical,space,0.8979156999848783,None,space,1,0.37469740002416074,None,,,,0,0,0,0,0,70,70,70,265.25116910005454,,,,,,,,,,,,,,,,265.23571430006996,265.25116910005454,265.95065850007813,265.95065850007813,266.45019740005955,266.4341934999684,266.4347425000742,266.45019740005955,266.69993480003905,266.89984089997597,266.89984089997597,267.2847982000094,space,1,0.37469740002416074,None,267.2911092999857,267.7991412000265,268.7824039000552,,,268.7983538999688,,,,,,,,,,,,,,,007,002,2025-05-01_20h03.09.642,Cued GoNogo Task,2024.2.4,60.04148867704207,2025-05-01 20h03.21.591103 +0200,
block/CondBlock1.xlsx,You are about to start a block of type 1 trials.,71,71,0,Go,Go,0.28,0.05,0.2,space,green,horizontal,space,0.8979156999848783,None,space,1,0.3867284998996183,None,,,,0,0,0,0,0,71,71,71,268.7983538999688,,,,,,,,,,,,,,,,268.7828507999657,268.7983538999688,269.4977729000384,269.4977729000384,269.99720460001845,269.98114060005173,269.98152090003714,269.99720460001845,270.2802082999842,270.4799682999728,270.4799682999728,270.88058630004525,space,1,0.3867284998996183,None,270.8834929000586,271.39610929996707,272.3791207000613,,,272.3951498999959,,,,,,,,,,,,,,,007,002,2025-05-01_20h03.09.642,Cued GoNogo Task,2024.2.4,60.04148867704207,2025-05-01 20h03.21.591103 +0200,
block/CondBlock1.xlsx,You are about to start a block of type 1 trials.,72,72,0,Go,Go,0.14,0.05,0.2,space,blue,horizontal,space,0.8979156999848783,None,space,1,0.2990077999420464,None,,,,0,0,0,0,0,72,72,72,272.3951498999959,,,,,,,,,,,,,,,,272.37931860005483,272.3951498999959,273.0948154000798,273.0948154000798,273.5944515999872,273.5785268000327,273.5792169000488,273.5944515999872,273.7442465000786,273.9274580000201,273.9274580000201,274.22931239998434,space,1,0.2990077999420464,None,274.2341373000527,274.74342199997045,275.7265922999941,,,275.74257290002424,,,,,,,,,,,,,,,007,002,2025-05-01_20h03.09.642,Cued GoNogo Task,2024.2.4,60.04148867704207,2025-05-01 20h03.21.591103 +0200,
block/CondBlock1.xlsx,You are about to start a block of type 1 trials.,73,73,0,Go,Go,0.11,0.05,0.2,space,blue,horizontal,space,0.8979156999848783,None,space,1,0.32971530000213534,None,,,,0,0,0,0,0,73,73,73,275.74257290002424,,,,,,,,,,,,,,,,275.72680559998844,275.74257290002424,276.4421008999925,276.4421008999925,276.94151809997857,276.9255640000338,276.92610070004594,276.94151809997857,277.0580277000554,277.24131519999355,277.24131519999355,277.57595129997935,space,1,0.32971530000213534,None,277.5799773000181,278.090619900031,279.0743449999718,,,279.089905400062,,,,,,,,,,,,,,,007,002,2025-05-01_20h03.09.642,Cued GoNogo Task,2024.2.4,60.04148867704207,2025-05-01 20h03.21.591103 +0200,
block/CondBlock1.xlsx,You are about to start a block of type 1 trials.,74,74,0,Go,Go,0.22,0.2,0.05,space,blue,vertical,space,0.8979156999848783,None,space,1,0.3059153000358492,None,,,,0,0,0,0,0,74,74,74,279.089905400062,,,,,,,,,,,,,,,,279.07465199998114,279.089905400062,279.7893353999825,279.7893353999825,280.28884220006876,280.272817100049,280.27334399998654,280.28884220006876,280.52204700000584,280.7051790000405,280.7051790000405,281.0229371000314,space,1,0.3059153000358492,None,281.02856220002286,281.5378826999804,282.52107470005285,,,282.53693589998875,,,,,,,,,,,,,,,007,002,2025-05-01_20h03.09.642,Cued GoNogo Task,2024.2.4,60.04148867704207,2025-05-01 20h03.21.591103 +0200,
block/CondBlock1.xlsx,You are about to start a block of type 1 trials.,75,75,0,Go,Go,0.26,0.05,0.2,space,blue,horizontal,space,0.8979156999848783,None,space,1,0.2729580000741407,None,,,,0,0,0,0,0,75,75,75,282.53693589998875,,,,,,,,,,,,,,,,282.52134790003765,282.53693589998875,283.236526499968,283.236526499968,283.7360901000211,283.71995190007146,283.7206835000543,283.7360901000211,284.00241950002965,284.1857661000686,284.1857661000686,284.46977550000884,space,1,0.2729580000741407,None,284.4734480000334,284.9848636999959,285.96822540008,,,285.98414050007705,,,,,,,,,,,,,,,007,002,2025-05-01_20h03.09.642,Cued GoNogo Task,2024.2.4,60.04148867704207,2025-05-01 20h03.21.591103 +0200,
block/CondBlock1.xlsx,You are about to start a block of type 1 trials.,76,76,0,Go,Go,0.14,0.2,0.05,space,green,vertical,space,0.8979156999848783,None,space,1,0.22233450005296618,None,,,,0,0,0,0,0,76,76,76,285.98414050007705,,,,,,,,,,,,,,,,285.9685052999994,285.98414050007705,286.68354530003853,286.68354530003853,287.183053500019,287.16762940003537,287.16842060000636,287.183053500019,287.3329288000241,287.5161719999742,287.5161719999742,287.7506232999731,space,1,0.22233450005296618,None,287.75503260002006,288.2656892000232,289.24874970002566,,,289.26471490005497,,,,,,,,,,,,,,,007,002,2025-05-01_20h03.09.642,Cued GoNogo Task,2024.2.4,60.04148867704207,2025-05-01 20h03.21.591103 +0200,
block/CondBlock1.xlsx,You are about to start a block of type 1 trials.,77,77,0,Go,Go,0.18,0.05,0.2,space,green,horizontal,space,0.8979156999848783,None,space,1,0.3732116000028327,None,,,,0,0,0,0,0,77,77,77,289.26471490005497,,,,,,,,,,,,,,,,289.2489811000414,289.26471490005497,289.9643040000228,289.9643040000228,290.46380280004814,290.44787560007535,290.44855009997264,290.46380280004814,290.6469347999664,290.8301152000204,290.8301152000204,291.21421180001926,space,1,0.3732116000028327,None,291.21780189999845,291.7293387000682,292.71251480001956,,,292.7286359000718,,,,,,,,,,,,,,,007,002,2025-05-01_20h03.09.642,Cued GoNogo Task,2024.2.4,60.04148867704207,2025-05-01 20h03.21.591103 +0200,
block/CondBlock1.xlsx,You are about to start a block of type 1 trials.,78,78,0,NoGo,NoGo,0.27,0.05,0.2,none,blue,horizontal,space,0.8979156999848783,None,None,1,,,,,,0,0,0,0,0,78,78,78,292.7286359000718,,,,,,,,,,,,,,,,292.71276550006587,292.7286359000718,293.42800539999735,293.42800539999735,293.92773810005747,293.9121210000012,293.9130326000741,293.92773810005747,294.2108935000142,294.39377379999496,294.39377379999496,294.8773807999678,None,1,,,294.8795569000067,295.37647510005627,296.3597210000735,294.8935047000414,294.8935047000414,296.37549580005,,,,,,,,,,,,,,,007,002,2025-05-01_20h03.09.642,Cued GoNogo Task,2024.2.4,60.04148867704207,2025-05-01 20h03.21.591103 +0200,
block/CondBlock1.xlsx,You are about to start a block of type 1 trials.,79,79,0,NoGo,NoGo,0.26,0.2,0.05,none,blue,vertical,space,0.8979156999848783,None,space,0,0.2104423000710085,None,,,,0,0,0,0,0,79,79,79,296.37549580005,,,,,,,,,,,,,,,,296.3599805000704,296.39217750006355,297.0917723000748,297.0917723000748,297.591271399986,297.5754395000404,297.57622499996796,297.591271399986,297.85773020004854,298.04088220000267,298.04088220000267,298.25879320001695,space,0,0.2104423000710085,None,298.26389970001765,298.77369609999005,299.75699640007224,,,299.772779299994,,,,,,,,,,,,,,,007,002,2025-05-01_20h03.09.642,Cued GoNogo Task,2024.2.4,60.04148867704207,2025-05-01 20h03.21.591103 +0200,
block/CondBlock1.xlsx,You are about to start a block of type 1 trials.,80,80,0,Go,Go,0.22,0.2,0.05,space,green,vertical,space,0.8979156999848783,None,space,1,0.3106853000354022,None,,,,0,0,0,0,0,80,80,80,299.772779299994,,,,,,,,,,,,,,,,299.75730399996974,299.772779299994,300.47226960002445,300.47226960002445,300.97169909998775,300.9563654999947,300.95703170006163,300.97169909998775,301.20493520004675,301.3880641000578,301.3880641000578,301.7057055999758,space,1,0.3106853000354022,None,301.70949699997436,302.2207661999855,303.2039587000618,,,303.22000470000785,,,,,,,,,,,,,,,007,002,2025-05-01_20h03.09.642,Cued GoNogo Task,2024.2.4,60.04148867704207,2025-05-01 20h03.21.591103 +0200,
block/CondBlock1.xlsx,You are about to start a block of type 1 trials.,81,81,0,Go,Go,0.5,0.2,0.05,space,green,vertical,space,0.8979156999848783,None,space,1,0.30013019999023527,None,,,,0,0,0,0,0,81,81,81,303.22000470000785,,,,,,,,,,,,,,,,303.20418980007526,303.22000470000785,303.919407300069,303.919407300069,304.4190368000418,304.40287740004715,304.4034565000329,304.4190368000418,304.9186715000542,305.1185170999961,305.1185170999961,305.4213808000786,space,1,0.30013019999023527,None,305.4257345000515,305.93419639999047,306.918140499969,,,306.93365600006655,,,,,,,,,,,,,,,007,002,2025-05-01_20h03.09.642,Cued GoNogo Task,2024.2.4,60.04148867704207,2025-05-01 20h03.21.591103 +0200,
block/CondBlock1.xlsx,You are about to start a block of type 1 trials.,82,82,0,Go,Go,0.43,0.05,0.2,space,green,horizontal,space,0.8979156999848783,None,space,1,0.32572770002298057,None,,,,0,0,0,0,0,82,82,82,306.93365600006655,,,,,,,,,,,,,,,,306.91853290004656,306.93365600006655,307.63303899997845,307.63303899997845,308.1327406000346,308.11659980006516,308.1172569000628,308.1327406000346,308.565457800054,308.76525160006713,308.76525160006713,309.0997067000717,space,1,0.32572770002298057,None,309.1043024000246,309.6146447000792,310.5980247000698,,,310.61394790001214,,,,,,,,,,,,,,,007,002,2025-05-01_20h03.09.642,Cued GoNogo Task,2024.2.4,60.04148867704207,2025-05-01 20h03.21.591103 +0200,
block/CondBlock1.xlsx,You are about to start a block of type 1 trials.,83,83,0,Go,Go,0.25,0.2,0.05,space,green,vertical,space,0.8979156999848783,None,space,1,0.25204829999711365,None,,,,0,0,0,0,0,83,83,83,310.61394790001214,,,,,,,,,,,,,,,,310.5983163000783,310.61394790001214,311.31321519997437,311.31321519997437,311.8130861000391,311.7968733999878,311.7974668999668,311.8130861000391,312.0627821000526,312.26240320003126,312.26240320003126,312.53046749997884,space,1,0.25204829999711365,None,312.5346750000026,313.04516680003144,314.02844989998266,,,314.044465300045,,,,,,,,,,,,,,,007,002,2025-05-01_20h03.09.642,Cued GoNogo Task,2024.2.4,60.04148867704207,2025-05-01 20h03.21.591103 +0200,
block/CondBlock1.xlsx,You are about to start a block of type 1 trials.,84,84,0,NoGo,NoGo,0.14,0.2,0.05,none,green,vertical,space,0.8979156999848783,None,space,0,0.23402390000410378,None,,,,0,0,0,0,0,84,84,84,314.044465300045,,,,,,,,,,,,,,,,314.0287132000085,314.044465300045,314.74382299999706,314.74382299999706,315.2436886000214,315.2274907999672,315.22812590003014,315.2436886000214,315.39348640001845,315.5761752000544,315.5761752000544,315.82715340005234,space,0,0.23402390000410378,None,315.8323363000527,316.3424365000101,317.32591869996395,,,317.34175969997887,,,,,,,,,,,,,,,007,002,2025-05-01_20h03.09.642,Cued GoNogo Task,2024.2.4,60.04148867704207,2025-05-01 20h03.21.591103 +0200,
block/CondBlock1.xlsx,You are about to start a block of type 1 trials.,85,85,0,Go,Go,0.2,0.05,0.2,space,blue,horizontal,space,0.8979156999848783,None,space,1,0.334955699974671,None,,,,0,0,0,0,0,85,85,85,317.34175969997887,,,,,,,,,,,,,,,,317.3262673000572,317.34175969997887,318.04104130005,318.04104130005,318.5406322000781,318.5247207999928,318.52542099996936,318.5406322000781,318.7405544000212,318.9402931999648,318.9402931999648,319.29133190005086,space,1,0.334955699974671,None,319.2959869999904,319.80622210004367,320.78944429999683,,,320.8054817999946,,,,,,,,,,,,,,,007,002,2025-05-01_20h03.09.642,Cued GoNogo Task,2024.2.4,60.04148867704207,2025-05-01 20h03.21.591103 +0200,
block/CondBlock1.xlsx,You are about to start a block of type 1 trials.,86,86,0,Go,Go,0.16,0.2,0.05,space,blue,vertical,space,0.8979156999848783,None,space,1,0.3127236000727862,None,,,,0,0,0,0,0,86,86,86,320.8054817999946,,,,,,,,,,,,,,,,320.78960780007765,320.8054817999946,321.50481139996555,321.50481139996555,322.00454600004014,321.98910930007696,321.9899660999654,322.00454600004014,322.1710209000157,322.35429659998044,322.35429659998044,322.6720452000154,space,1,0.3127236000727862,None,322.675086800009,323.18678220000584,324.1701137999771,,,324.1861335000722,,,,,,,,,,,,,,,007,002,2025-05-01_20h03.09.642,Cued GoNogo Task,2024.2.4,60.04148867704207,2025-05-01 20h03.21.591103 +0200,
block/CondBlock1.xlsx,You are about to start a block of type 1 trials.,87,87,0,Go,Go,0.41,0.2,0.05,space,green,vertical,space,0.8979156999848783,None,space,1,0.31446339993271977,None,,,,0,0,0,0,0,87,87,87,324.1861335000722,,,,,,,,,,,,,,,,324.17043950001244,324.1861335000722,324.8855029999977,324.8855029999977,325.3849732000381,325.36931770003866,325.3699311000528,325.3849732000381,325.8015111000277,325.98469650000334,325.98469650000334,326.302285999991,space,1,0.31446339993271977,None,326.3063095000107,326.81730650004465,327.80055629997514,,,327.81631040002685,,,,,,,,,,,,,,,007,002,2025-05-01_20h03.09.642,Cued GoNogo Task,2024.2.4,60.04148867704207,2025-05-01 20h03.21.591103 +0200,
block/CondBlock1.xlsx,You are about to start a block of type 1 trials.,88,88,0,NoGo,NoGo,0.15,0.2,0.05,none,green,vertical,space,0.8979156999848783,None,None,1,,,,,,0,0,0,0,0,88,88,88,327.81631040002685,,,,,,,,,,,,,,,,327.80082410003524,327.81631040002685,328.51582299999427,328.51582299999427,329.01556229998823,328.9991899000015,328.99974320002366,329.01556229998823,329.16525720001664,329.3651399000082,329.3651399000082,329.8488110000035,None,1,,,329.8518203999847,330.3643282999983,331.3477661999641,329.86460530001204,329.86460530001204,331.3635263000615,,,,,,,,,,,,,,,007,002,2025-05-01_20h03.09.642,Cued GoNogo Task,2024.2.4,60.04148867704207,2025-05-01 20h03.21.591103 +0200,
block/CondBlock1.xlsx,You are about to start a block of type 1 trials.,89,89,0,Go,Go,0.24,0.05,0.2,space,blue,horizontal,space,0.8979156999848783,None,space,1,0.28710199997294694,None,,,,0,0,0,0,0,89,89,89,331.3635263000615,,,,,,,,,,,,,,,,331.3480760999955,331.3635263000615,332.06300409999676,332.06300409999676,332.5628133000573,332.54691959999036,332.54780270007905,332.5628133000573,332.81231329997536,332.99571509996895,332.99571509996895,333.2963077999884,space,1,0.28710199997294694,None,333.29948390007485,333.8115636999719,334.79489460005425,,,334.810507300077,,,,,,,,,,,,,,,007,002,2025-05-01_20h03.09.642,Cued GoNogo Task,2024.2.4,60.04148867704207,2025-05-01 20h03.21.591103 +0200,
block/CondBlock1.xlsx,You are about to start a block of type 1 trials.,90,90,0,Go,Go,0.25,0.2,0.05,space,blue,vertical,space,0.8979156999848783,None,space,1,0.3285613999469206,None,,,,0,0,0,0,0,90,90,90,334.810507300077,,,,,,,,,,,,,,,,334.7952179000713,334.810507300077,335.50993749999907,335.50993749999907,336.0096021000063,335.99371770001017,335.9943115999922,336.0096021000063,336.2594444999704,336.459273400018,336.459273400018,336.79342270002235,space,1,0.3285613999469206,None,336.7970952000469,337.30864820000716,338.2921506999992,,,338.30792200006545,,,,,,,,,,,,,,,007,002,2025-05-01_20h03.09.642,Cued GoNogo Task,2024.2.4,60.04148867704207,2025-05-01 20h03.21.591103 +0200,
block/CondBlock1.xlsx,You are about to start a block of type 1 trials.,91,91,0,Go,Go,0.26,0.05,0.2,space,green,horizontal,space,0.8979156999848783,None,space,1,0.3107387999771163,None,,,,0,0,0,0,0,91,91,91,338.30792200006545,,,,,,,,,,,,,,,,338.29253910004627,338.30792200006545,339.0073015000671,339.0073015000671,339.50704709999263,339.4909399000462,339.49154760001693,339.50704709999263,339.7730872000102,339.9565168999834,339.9565168999834,340.2743704000022,space,1,0.3107387999771163,None,340.27915060007945,340.78914880007505,341.77240010001697,,,341.78821640007664,,,,,,,,,,,,,,,007,002,2025-05-01_20h03.09.642,Cued GoNogo Task,2024.2.4,60.04148867704207,2025-05-01 20h03.21.591103 +0200,
block/CondBlock1.xlsx,You are about to start a block of type 1 trials.,92,92,0,NoGo,NoGo,0.44,0.2,0.05,none,blue,vertical,space,0.8979156999848783,None,space,0,0.27063400007318705,None,,,,0,0,0,0,0,92,92,92,341.78821640007664,,,,,,,,,,,,,,,,341.77269610005897,341.78821640007664,342.4875971999718,342.4875971999718,342.98738639999647,342.9713620999828,342.97199720004573,342.98738639999647,343.4368429000024,343.62020850006957,343.62020850006957,343.904286300065,space,0,0.27063400007318705,None,343.9084680000087,344.41936910001095,345.4028249999974,,,345.4185833999654,,,,,,,,,,,,,,,007,002,2025-05-01_20h03.09.642,Cued GoNogo Task,2024.2.4,60.04148867704207,2025-05-01 20h03.21.591103 +0200,
block/CondBlock1.xlsx,You are about to start a block of type 1 trials.,93,93,0,Go,Go,0.13,0.2,0.05,space,green,vertical,space,0.8979156999848783,None,space,1,0.36435050005093217,None,,,,0,0,0,0,0,93,93,93,345.4185833999654,,,,,,,,,,,,,,,,345.40303990000393,345.4185833999654,346.1180752000073,346.1180752000073,346.6175527999876,346.6017493000254,346.602470700047,346.6175527999876,346.7508310000412,346.933979799971,346.933979799971,347.3023730000714,space,1,0.36435050005093217,None,347.30642729997635,347.8164711999707,348.80002279998735,,,348.8156691000331,,,,,,,,,,,,,,,007,002,2025-05-01_20h03.09.642,Cued GoNogo Task,2024.2.4,60.04148867704207,2025-05-01 20h03.21.591103 +0200,
block/CondBlock1.xlsx,You are about to start a block of type 1 trials.,94,94,0,Go,Go,0.44,0.05,0.2,space,blue,horizontal,space,0.8979156999848783,None,space,1,0.3073650998994708,None,,,,0,0,0,0,0,94,94,94,348.8156691000331,,,,,,,,,,,,,,,,348.80032939999364,348.8156691000331,349.5152305000229,349.5152305000229,350.0147539000027,349.9988512999844,349.9994438000722,350.0147539000027,350.464330399991,350.6477359000128,350.6477359000128,350.96523590001743,space,1,0.3073650998994708,None,350.96976700006053,351.4802665000316,352.46350439998787,,,352.4793837000616,,,,,,,,,,,,,,,007,002,2025-05-01_20h03.09.642,Cued GoNogo Task,2024.2.4,60.04148867704207,2025-05-01 20h03.21.591103 +0200,
block/CondBlock1.xlsx,You are about to start a block of type 1 trials.,95,95,0,Go,Go,0.15,0.2,0.05,space,green,vertical,space,0.8979156999848783,None,space,1,0.34300650004297495,None,,,,0,0,0,0,0,95,95,95,352.4793837000616,,,,,,,,,,,,,,,,352.46378960006405,352.4793837000616,353.17899350007065,353.17899350007065,353.67854300001636,353.6624908000231,353.66301090002526,353.67854300001636,353.8283472000621,354.0281619000016,354.0281619000016,354.37920159997884,space,1,0.34300650004297495,None,354.38258259999566,354.89427990000695,355.8933884999715,,,,,,,,,,,,,,,,,,007,002,2025-05-01_20h03.09.642,Cued GoNogo Task,2024.2.4,60.04148867704207,2025-05-01 20h03.21.591103 +0200,
block/CondBlock1.xlsx,You are about to start a block of type 1 trials.,96,96,0,Go,Go,0.49,0.2,0.05,space,green,vertical,space,0.8979156999848783,None,space,1,0.32410550001077354,None,,,,0,0,0,0,0,96,96,96,355.9099130000686,,,,,,,,,,,,,,,,355.89375439996365,355.9099130000686,356.5927891000174,356.60940229997505,357.09240550000686,357.0763347999891,357.07694840000477,357.09240550000686,357.59195640007965,357.775004300056,357.775004300056,358.1095905000111,space,1,0.32410550001077354,None,358.1142601000611,358.6244297999656,359.60745230002794,,,359.6234629000537,,,,,,,,,,,,,,,007,002,2025-05-01_20h03.09.642,Cued GoNogo Task,2024.2.4,60.04148867704207,2025-05-01 20h03.21.591103 +0200,
block/CondBlock1.xlsx,You are about to start a block of type 1 trials.,97,97,0,Go,Go,0.11,0.2,0.05,space,blue,vertical,space,0.8979156999848783,None,space,1,0.42486729996744543,None,,,,0,0,0,0,0,97,97,97,359.6234629000537,,,,,,,,,,,,,,,,359.607652900042,359.6234629000537,360.3230027999962,360.3230027999962,360.8225502000423,360.80705499998294,360.8079149000114,360.8225502000423,360.9391509999987,361.1223726000171,361.1223726000171,361.5566736999899,space,1,0.42486729996744543,None,361.56298060005065,362.07168210006785,363.05503250006586,,,363.07073050003964,,,,,,,,,,,,,,,007,002,2025-05-01_20h03.09.642,Cued GoNogo Task,2024.2.4,60.04148867704207,2025-05-01 20h03.21.591103 +0200,
block/CondBlock1.xlsx,You are about to start a block of type 1 trials.,98,98,0,Go,Go,0.26,0.05,0.2,space,green,horizontal,space,0.8979156999848783,None,space,1,0.37971530004870147,None,,,,0,0,0,0,0,98,98,98,363.07073050003964,,,,,,,,,,,,,,,,363.05534710001666,363.07073050003964,363.77002499997616,363.77002499997616,364.2698017000221,364.2538863000227,364.25445490004495,364.2698017000221,364.5361298000207,364.7194442000473,364.7194442000473,365.1036539999768,space,1,0.37971530004870147,None,365.1077893000329,365.618911699974,366.6020399000263,,,366.617746300064,,,,,,,,,,,,,,,007,002,2025-05-01_20h03.09.642,Cued GoNogo Task,2024.2.4,60.04148867704207,2025-05-01 20h03.21.591103 +0200,
block/CondBlock1.xlsx,You are about to start a block of type 1 trials.,99,99,0,Go,Go,0.28,0.05,0.2,space,green,horizontal,space,0.8979156999848783,None,space,1,0.34458459995221347,None,,,,0,0,0,0,0,99,99,99,366.617746300064,,,,,,,,,,,,,,,,366.6022925999714,366.617746300064,367.31713500001933,367.31713500001933,367.817017900059,367.8010356000159,367.80173449998256,367.817017900059,368.0999384999741,368.2833401999669,368.2833401999669,368.63408350001555,space,1,0.34458459995221347,None,368.6377836000174,369.14900710002985,370.13250319997314,,,370.1648511000676,,,,,,,,,,,,,,,007,002,2025-05-01_20h03.09.642,Cued GoNogo Task,2024.2.4,60.04148867704207,2025-05-01 20h03.21.591103 +0200,
block/CondBlock1.xlsx,You are about to start a block of type 1 trials.,0,0,0,,,,,,,,,space,0.8979156999848783,None,,,,,space,1.134002200094983,None,0,0,0,0,,,,,,,,,,,,,,,,,,,,,,,,,,,,,,,,,,,,,,,,,,,370.16259439999703,370.1648511000676,370.1648511000676,371.31549199996516,space,1.134002200094983,None,,,,,,,,007,002,2025-05-01_20h03.09.642,Cued GoNogo Task,2024.2.4,60.04148867704207,2025-05-01 20h03.21.591103 +0200,
block/CondBlock2.xlsx,You are about to start a block of type 2 trials.,0,0,0,Go,Go,0.18,0.05,0.2,space,green,horizontal,space,300.98390010010917,None,space,1,0.36028370005078614,None,,,,0,1,1,1,0,0,0,0,672.3618849000195,,,,,,,,,371.3194055000786,371.330514100031,371.330514100031,672.3184886999661,space,300.98390010010917,None,672.3594104000367,672.3618849000195,673.032601700048,673.0658894999651,673.5322399999714,673.5164128000615,673.5172567999689,673.5322399999714,673.7153791000601,673.898600500077,673.898600500077,674.2664242000319,space,1,0.36028370005078614,None,674.2713817000622,674.7810550000286,675.76440059999,,,675.7802736000158,,,,,,,,,,,,,,,007,002,2025-05-01_20h03.09.642,Cued GoNogo Task,2024.2.4,60.04148867704207,2025-05-01 20h03.21.591103 +0200,
block/CondBlock2.xlsx,You are about to start a block of type 2 trials.,1,1,0,Go,Go,0.2,0.2,0.05,space,green,vertical,space,300.98390010010917,None,space,1,0.20746569999027997,None,,,,0,1,1,1,0,1,1,1,675.7802736000158,,,,,,,,,,,,,,,,675.7646935000084,675.7802736000158,676.4796506999992,676.4796506999992,676.9793590999907,676.9632238000631,676.9639402000466,676.9793590999907,677.1789527999936,677.3787139999913,677.3787139999913,677.5963079000358,space,1,0.20746569999027997,None,677.5996951999841,678.1115728999721,679.0949021000415,,,679.111018900061,,,,,,,,,,,,,,,007,002,2025-05-01_20h03.09.642,Cued GoNogo Task,2024.2.4,60.04148867704207,2025-05-01 20h03.21.591103 +0200,
block/CondBlock2.xlsx,You are about to start a block of type 2 trials.,2,2,0,Go,Go,0.22,0.05,0.2,space,blue,horizontal,space,300.98390010010917,None,space,1,0.3647693000966683,None,,,,0,1,1,1,0,2,2,2,679.111018900061,,,,,,,,,,,,,,,,679.0951968000736,679.111018900061,679.8101682000561,679.8101682000561,680.3097779999953,680.2939185000723,680.2945498999907,680.3097779999953,680.5430950999726,680.7262060999637,680.7262060999637,681.0948139000684,space,1,0.3647693000966683,None,681.0998459999682,681.6087293999735,682.5921260999748,,,682.6079946999671,,,,,,,,,,,,,,,007,002,2025-05-01_20h03.09.642,Cued GoNogo Task,2024.2.4,60.04148867704207,2025-05-01 20h03.21.591103 +0200,
block/CondBlock2.xlsx,You are about to start a block of type 2 trials.,3,3,0,Go,Go,0.14,0.05,0.2,space,green,horizontal,space,300.98390010010917,None,space,1,0.35900699999183416,None,,,,0,1,1,1,0,3,3,3,682.6079946999671,,,,,,,,,,,,,,,,682.5924265000504,682.6079946999671,683.3074000000488,683.3074000000488,683.807026399998,683.7909283000045,683.7914642000105,683.807026399998,683.9567928999895,684.1400823000586,684.1400823000586,684.5074976000469,space,1,0.35900699999183416,None,684.5114064000081,685.0225933999754,686.005896500079,,,686.0218228000449,,,,,,,,,,,,,,,007,002,2025-05-01_20h03.09.642,Cued GoNogo Task,2024.2.4,60.04148867704207,2025-05-01 20h03.21.591103 +0200,
block/CondBlock2.xlsx,You are about to start a block of type 2 trials.,4,4,0,Go,Go,0.26,0.05,0.2,space,blue,horizontal,space,300.98390010010917,None,space,1,0.27615799999330193,None,,,,0,1,1,1,0,4,4,4,686.0218228000449,,,,,,,,,,,,,,,,686.0062073000008,686.0218228000449,686.7211620999733,686.7211620999733,687.2208581999876,687.2047682000557,687.2053816000698,687.2208581999876,687.487224200042,687.6704627000727,687.6704627000727,687.954581500031,space,1,0.27615799999330193,None,687.9586213000584,688.4697544999653,689.4529536999762,,,689.4689147999743,,,,,,,,,,,,,,,007,002,2025-05-01_20h03.09.642,Cued GoNogo Task,2024.2.4,60.04148867704207,2025-05-01 20h03.21.591103 +0200,
block/CondBlock2.xlsx,You are about to start a block of type 2 trials.,5,5,0,Go,Go,0.1,0.05,0.2,space,blue,horizontal,space,300.98390010010917,None,space,1,0.27519349998328835,None,,,,0,1,1,1,0,5,5,5,689.4689147999743,,,,,,,,,,,,,,,,689.45319749997,689.4689147999743,690.1686117000645,690.1686117000645,690.6678490000777,690.652235000045,690.6529096000595,690.6678490000777,690.7677510000067,690.9677617000416,690.9677617000416,691.2518658000045,space,1,0.27519349998328835,None,691.2557064000284,691.767039300059,692.7506448000204,,,692.7662367000012,,,,,,,,,,,,,,,007,002,2025-05-01_20h03.09.642,Cued GoNogo Task,2024.2.4,60.04148867704207,2025-05-01 20h03.21.591103 +0200,
block/CondBlock2.xlsx,You are about to start a block of type 2 trials.,6,6,0,NoGo,NoGo,0.3,0.2,0.05,none,green,vertical,space,300.98390010010917,None,None,1,,,,,,0,1,1,1,0,6,6,6,692.7662367000012,,,,,,,,,,,,,,,,692.7509566000663,692.7662367000012,693.4656141999876,693.4656141999876,693.9654805000173,693.9492962000659,693.9501271999907,693.9654805000173,694.2650125999935,694.4648711000336,694.4648711000336,694.9485191999702,None,1,,,694.9512397999642,695.4473873999668,696.4304059999995,694.9647139000008,694.9647139000008,696.4464340000413,,,,,,,,,,,,,,,007,002,2025-05-01_20h03.09.642,Cued GoNogo Task,2024.2.4,60.04148867704207,2025-05-01 20h03.21.591103 +0200,
block/CondBlock2.xlsx,You are about to start a block of type 2 trials.,7,7,0,NoGo,NoGo,0.14,0.05,0.2,none,blue,horizontal,space,300.98390010010917,None,None,1,,,,,,0,1,1,1,0,7,7,7,696.4464340000413,,,,,,,,,,,,,,,,696.4305661000544,696.463143800036,697.1627317999955,697.1627317999955,697.6620765000116,697.6463204000611,697.64692129998,697.6620765000116,697.8122299000388,697.995307300007,697.995307300007,698.4786052000709,None,1,,,698.4789670000318,698.9778011000017,699.9609213999938,698.4948290999746,698.4948290999746,699.9770499999868,,,,,,,,,,,,,,,007,002,2025-05-01_20h03.09.642,Cued GoNogo Task,2024.2.4,60.04148867704207,2025-05-01 20h03.21.591103 +0200,
block/CondBlock2.xlsx,You are about to start a block of type 2 trials.,8,8,0,Go,Go,0.13,0.2,0.05,space,blue,vertical,space,300.98390010010917,None,space,1,0.300809400039725,None,,,,0,1,1,1,0,8,8,8,699.9770499999868,,,,,,,,,,,,,,,,699.9611983000068,699.99363120005,700.6931647000602,700.6931647000602,701.1925642000278,701.1769492999883,701.1778907000553,701.1925642000278,701.3260639000218,701.5091836000793,701.5091836000793,701.8268247999949,space,1,0.300809400039725,None,701.8316022000508,702.3415994000388,703.3251672000624,,,703.3409437000519,,,,,,,,,,,,,,,007,002,2025-05-01_20h03.09.642,Cued GoNogo Task,2024.2.4,60.04148867704207,2025-05-01 20h03.21.591103 +0200,
block/CondBlock2.xlsx,You are about to start a block of type 2 trials.,9,9,0,Go,Go,0.43,0.2,0.05,space,green,vertical,space,300.98390010010917,None,space,1,0.359192100004293,None,,,,0,1,1,1,0,9,9,9,703.3409437000519,,,,,,,,,,,,,,,,703.3254673000192,703.3409437000519,704.0404358999804,704.0404358999804,704.539910200052,704.5239307000302,704.5245735000353,704.539910200052,704.9728536000475,705.156016599969,705.156016599969,705.5236603000667,space,1,0.359192100004293,None,705.5272440999979,706.0386451999657,707.0217445000308,,,707.0379155999981,,,,,,,,,,,,,,,007,002,2025-05-01_20h03.09.642,Cued GoNogo Task,2024.2.4,60.04148867704207,2025-05-01 20h03.21.591103 +0200,
block/CondBlock2.xlsx,You are about to start a block of type 2 trials.,10,10,0,Go,Go,0.14,0.2,0.05,space,green,vertical,space,300.98390010010917,None,space,1,0.305624199914746,None,,,,0,1,1,1,0,10,10,10,707.0379155999981,,,,,,,,,,,,,,,,707.0220034000231,707.0379155999981,707.7372778999852,707.7372778999852,708.2367179000285,708.2210134000052,708.2215977000305,708.2367179000285,708.3867678999668,708.5699562999653,708.5699562999653,708.8874981000554,space,1,0.305624199914746,None,708.8914567000465,709.4024513000622,710.385638399981,,,710.4015948000597,,,,,,,,,,,,,,,007,002,2025-05-01_20h03.09.642,Cued GoNogo Task,2024.2.4,60.04148867704207,2025-05-01 20h03.21.591103 +0200,
block/CondBlock2.xlsx,You are about to start a block of type 2 trials.,11,11,0,Go,Go,0.27,0.2,0.05,space,green,vertical,space,300.98390010010917,None,space,1,0.2880365999881178,None,,,,0,1,1,1,0,11,11,11,710.4015948000597,,,,,,,,,,,,,,,,710.3858735000249,710.4015948000597,711.101258300012,711.101258300012,711.6006211000495,711.5846965999808,711.5852749000769,711.6006211000495,711.8838800999802,712.0671243000543,712.0671243000543,712.3678219000576,space,1,0.2880365999881178,None,712.372636700049,712.8829693000298,713.8660351000726,,,713.8821701999987,,,,,,,,,,,,,,,007,002,2025-05-01_20h03.09.642,Cued GoNogo Task,2024.2.4,60.04148867704207,2025-05-01 20h03.21.591103 +0200,
block/CondBlock2.xlsx,You are about to start a block of type 2 trials.,12,12,0,Go,Go,0.3,0.05,0.2,space,green,horizontal,space,300.98390010010917,None,space,1,0.3012303001014516,None,,,,0,1,1,1,0,12,12,12,713.8821701999987,,,,,,,,,,,,,,,,713.8662885000231,713.8821701999987,714.581505900016,714.581505900016,715.0811643999768,715.0654040999943,715.0660547000589,715.0811643999768,715.3809445999796,715.5809564000228,715.5809564000228,715.8983963000355,space,1,0.3012303001014516,None,715.9009296000004,716.4134939999785,717.3970355000347,,,717.4127926999936,,,,,,,,,,,,,,,007,002,2025-05-01_20h03.09.642,Cued GoNogo Task,2024.2.4,60.04148867704207,2025-05-01 20h03.21.591103 +0200,
block/CondBlock2.xlsx,You are about to start a block of type 2 trials.,13,13,0,Go,Go,0.18,0.2,0.05,space,blue,vertical,space,300.98390010010917,None,space,1,0.3362447000108659,None,,,,0,1,1,1,0,13,13,13,717.4127926999936,,,,,,,,,,,,,,,,717.3973456000676,717.4127926999936,718.1119874999858,718.1119874999858,718.6118295000633,718.5955602000467,718.5961483999854,718.6118295000633,718.7947784999851,718.9780322000152,718.9780322000152,719.3292847999837,space,1,0.3362447000108659,None,719.3345345000271,719.8440496000694,720.8271783000091,,,720.8432371000526,,,,,,,,,,,,,,,007,002,2025-05-01_20h03.09.642,Cued GoNogo Task,2024.2.4,60.04148867704207,2025-05-01 20h03.21.591103 +0200,
block/CondBlock2.xlsx,You are about to start a block of type 2 trials.,14,14,0,Go,Go,0.13,0.2,0.05,space,green,vertical,space,300.98390010010917,None,space,1,0.3814665999962017,None,,,,0,1,1,1,0,14,14,14,720.8432371000526,,,,,,,,,,,,,,,,720.8274196999846,720.8432371000526,721.5425164999906,721.5425164999906,722.0422916000243,722.0261996000772,722.0267964999657,722.0422916000243,722.1753111999715,722.3584969000658,722.3584969000658,722.7430752000073,space,1,0.3814665999962017,None,722.7466869000345,723.2577756000683,724.2410901000258,,,724.2570496000117,,,,,,,,,,,,,,,007,002,2025-05-01_20h03.09.642,Cued GoNogo Task,2024.2.4,60.04148867704207,2025-05-01 20h03.21.591103 +0200,
block/CondBlock2.xlsx,You are about to start a block of type 2 trials.,15,15,0,Go,Go,0.18,0.2,0.05,space,blue,vertical,space,300.98390010010917,None,space,1,0.28392259997781366,None,,,,0,1,1,1,0,15,15,15,724.2570496000117,,,,,,,,,,,,,,,,724.2413637000136,724.2570496000117,724.9563788999803,724.9563788999803,725.4560201000422,725.4399628000101,725.440472300048,725.4560201000422,725.6390896000667,725.8225352000445,725.8225352000445,726.123381500016,space,1,0.28392259997781366,None,726.1274633000139,726.6382286000298,727.6216440000571,,,727.6377350999974,,,,,,,,,,,,,,,007,002,2025-05-01_20h03.09.642,Cued GoNogo Task,2024.2.4,60.04148867704207,2025-05-01 20h03.21.591103 +0200,
block/CondBlock2.xlsx,You are about to start a block of type 2 trials.,16,16,0,Go,Go,0.24,0.2,0.05,space,green,vertical,space,300.98390010010917,None,space,1,0.38928120001219213,None,,,,0,1,1,1,0,16,16,16,727.6377350999974,,,,,,,,,,,,,,,,727.6219041000586,727.6377350999974,728.3370182000799,728.3370182000799,728.8364688999718,728.8204097000416,728.8207919000415,728.8364688999718,729.0865586000727,729.2696042000316,729.2696042000316,729.6699907999719,space,1,0.38928120001219213,None,729.6733936000383,730.1855818000622,731.1687341000652,,,731.1847201000201,,,,,,,,,,,,,,,007,002,2025-05-01_20h03.09.642,Cued GoNogo Task,2024.2.4,60.04148867704207,2025-05-01 20h03.21.591103 +0200,
block/CondBlock2.xlsx,You are about to start a block of type 2 trials.,17,17,0,Go,Go,0.26,0.2,0.05,space,blue,vertical,space,300.98390010010917,None,space,1,0.3455917000537738,None,,,,0,1,1,1,0,17,17,17,731.1847201000201,,,,,,,,,,,,,,,,731.1690083000576,731.1847201000201,731.8840105000418,731.8840105000418,732.3834990999894,732.3677795999683,732.368518800009,732.3834990999894,732.6500161000295,732.8331566000124,732.8331566000124,733.1840597999981,space,1,0.3455917000537738,None,733.1872395999962,733.6992515000748,734.6823934999993,,,734.6982897999696,,,,,,,,,,,,,,,007,002,2025-05-01_20h03.09.642,Cued GoNogo Task,2024.2.4,60.04148867704207,2025-05-01 20h03.21.591103 +0200,
block/CondBlock2.xlsx,You are about to start a block of type 2 trials.,18,18,0,Go,Go,0.1,0.05,0.2,space,blue,horizontal,space,300.98390010010917,None,space,1,0.4054871000116691,None,,,,0,1,1,1,0,18,18,18,734.6982897999696,,,,,,,,,,,,,,,,734.6826168000698,734.6982897999696,735.3980058999732,735.3980058999732,735.8973661999917,735.8812283000443,735.881729500019,735.8973661999917,735.9972756999778,736.1971960000228,736.1971960000228,736.6147164000431,space,1,0.4054871000116691,None,736.61893960007,737.1296592999715,738.1132276999997,,,738.1290538000176,,,,,,,,,,,,,,,007,002,2025-05-01_20h03.09.642,Cued GoNogo Task,2024.2.4,60.04148867704207,2025-05-01 20h03.21.591103 +0200,
block/CondBlock2.xlsx,You are about to start a block of type 2 trials.,19,19,0,Go,Go,0.46,0.2,0.05,space,blue,vertical,space,300.98390010010917,None,space,1,0.40963460004422814,None,,,,0,1,1,1,0,19,19,19,738.1290538000176,,,,,,,,,,,,,,,,738.1135135999648,738.1290538000176,738.8283129000338,738.8283129000338,739.3280341000063,739.3119492999977,739.3126011000713,739.3280341000063,739.7942579999799,739.9774737000698,739.9774737000698,740.3944603999844,space,1,0.40963460004422814,None,740.3971085000085,740.9101438999642,741.909142700024,,,,,,,,,,,,,,,,,,007,002,2025-05-01_20h03.09.642,Cued GoNogo Task,2024.2.4,60.04148867704207,2025-05-01 20h03.21.591103 +0200,
block/CondBlock2.xlsx,You are about to start a block of type 2 trials.,20,20,0,Go,Go,0.3,0.05,0.2,space,blue,horizontal,space,300.98390010010917,None,space,1,0.38784290000330657,None,,,,0,1,1,1,0,20,20,20,741.9258048000047,,,,,,,,,,,,,,,,741.9093641999643,741.9258048000047,742.6084978000727,742.6252403999679,743.1080808000406,743.0926715000533,743.0933654999826,743.1080808000406,743.4079256000696,743.6077140000416,743.6077140000416,744.0083923999919,space,1,0.38784290000330657,None,744.0123412000248,744.5237147000153,745.5067195000593,,,745.5228865999961,,,,,,,,,,,,,,,007,002,2025-05-01_20h03.09.642,Cued GoNogo Task,2024.2.4,60.04148867704207,2025-05-01 20h03.21.591103 +0200,
block/CondBlock2.xlsx,You are about to start a block of type 2 trials.,21,21,0,Go,Go,0.23,0.05,0.2,space,green,horizontal,space,300.98390010010917,None,space,1,0.42437030002474785,None,,,,0,1,1,1,0,21,21,21,745.5228865999961,,,,,,,,,,,,,,,,745.5069531999761,745.5228865999961,746.2222771999659,746.2222771999659,746.7217293999856,746.7060214000521,746.7067608999787,746.7217293999856,746.9550128000556,747.1382631000597,747.1382631000597,747.5721246000612,space,1,0.42437030002474785,None,747.575325999991,748.0873184000375,749.0705106999958,,,749.0865247000474,,,,,,,,,,,,,,,007,002,2025-05-01_20h03.09.642,Cued GoNogo Task,2024.2.4,60.04148867704207,2025-05-01 20h03.21.591103 +0200,
block/CondBlock2.xlsx,You are about to start a block of type 2 trials.,22,22,0,Go,Go,0.19,0.2,0.05,space,green,vertical,space,300.98390010010917,None,space,1,0.3836244000121951,None,,,,0,1,1,1,0,22,22,22,749.0865247000474,,,,,,,,,,,,,,,,749.0707532999804,749.0865247000474,749.7859329000348,749.7859329000348,750.2855258000782,750.2698527000612,750.2706361999735,750.2855258000782,750.4854033000302,750.6686178999953,750.6686178999953,751.0694913000334,space,1,0.3836244000121951,None,751.0741721000522,751.5845537000569,752.5678144000703,,,752.5835885000415,,,,,,,,,,,,,,,007,002,2025-05-01_20h03.09.642,Cued GoNogo Task,2024.2.4,60.04148867704207,2025-05-01 20h03.21.591103 +0200,
block/CondBlock2.xlsx,You are about to start a block of type 2 trials.,23,23,0,NoGo,NoGo,0.41,0.2,0.05,none,blue,vertical,space,300.98390010010917,None,None,1,,,,,,0,1,1,1,0,23,23,23,752.5835885000415,,,,,,,,,,,,,,,,752.5681221999694,752.5835885000415,753.2831933000125,753.2831933000125,753.7828337000683,753.7665329000447,753.7671402000124,753.7828337000683,754.199178299983,754.3820440999698,754.3820440999698,754.8658358000685,None,1,,,754.86846779997,755.3814128000522,756.3647187000606,754.8816862000385,754.8816862000385,756.3805045000045,,,,,,,,,,,,,,,007,002,2025-05-01_20h03.09.642,Cued GoNogo Task,2024.2.4,60.04148867704207,2025-05-01 20h03.21.591103 +0200,
block/CondBlock2.xlsx,You are about to start a block of type 2 trials.,24,24,0,Go,Go,0.17,0.2,0.05,space,blue,vertical,space,300.98390010010917,None,space,1,0.337814100086689,None,,,,0,1,1,1,0,24,24,24,756.3805045000045,,,,,,,,,,,,,,,,756.3650200000266,756.3805045000045,757.0800174999749,757.0800174999749,757.5797828000505,757.5632903999649,757.5637138000457,757.5797828000505,757.7627435000613,757.9461711000185,757.9461711000185,758.2969654999906,space,1,0.337814100086689,None,758.3017401000252,758.8117425000528,759.795140100061,,,759.8110132999718,,,,,,,,,,,,,,,007,002,2025-05-01_20h03.09.642,Cued GoNogo Task,2024.2.4,60.04148867704207,2025-05-01 20h03.21.591103 +0200,
block/CondBlock2.xlsx,You are about to start a block of type 2 trials.,25,25,0,Go,Go,0.27,0.05,0.2,space,blue,horizontal,space,300.98390010010917,None,space,1,0.29418349999468774,None,,,,0,1,1,1,0,25,25,25,759.8110132999718,,,,,,,,,,,,,,,,759.7954141000519,759.8110132999718,760.5105076000327,760.5105076000327,761.0099996000063,760.9943181000417,760.9949142000405,761.0099996000063,761.2931162000168,761.4765079000499,761.4765079000499,761.7778392999899,space,1,0.29418349999468774,None,761.7826832999708,762.2922908000182,763.2756795000751,,,763.2915233999956,,,,,,,,,,,,,,,007,002,2025-05-01_20h03.09.642,Cued GoNogo Task,2024.2.4,60.04148867704207,2025-05-01 20h03.21.591103 +0200,
block/CondBlock2.xlsx,You are about to start a block of type 2 trials.,26,26,0,Go,Go,0.26,0.05,0.2,space,green,horizontal,space,300.98390010010917,None,space,1,0.39783650008030236,None,,,,0,1,1,1,0,26,26,26,763.2915233999956,,,,,,,,,,,,,,,,763.2758725000313,763.2915233999956,763.9911349000176,763.9911349000176,764.4905861000298,764.4751355000772,764.47582469997,764.4905861000298,764.7570271000732,764.9404208000051,764.9404208000051,765.3413087000372,space,1,0.39783650008030236,None,765.3452465999871,765.8560351000633,766.8394311000593,,,766.855372400023,,,,,,,,,,,,,,,007,002,2025-05-01_20h03.09.642,Cued GoNogo Task,2024.2.4,60.04148867704207,2025-05-01 20h03.21.591103 +0200,
block/CondBlock2.xlsx,You are about to start a block of type 2 trials.,27,27,0,Go,Go,0.22,0.2,0.05,space,green,vertical,space,300.98390010010917,None,space,1,0.3246725000208244,None,,,,0,1,1,1,0,27,27,27,766.855372400023,,,,,,,,,,,,,,,,766.8397104999749,766.855372400023,767.5546317000408,767.5546317000408,768.0542324000271,768.0385311000282,768.0392166000092,768.0542324000271,768.287483299966,768.4705396000063,768.4705396000063,768.804653899977,space,1,0.3246725000208244,None,768.8073345000157,769.3200225000037,770.3192375999643,,,,,,,,,,,,,,,,,,007,002,2025-05-01_20h03.09.642,Cued GoNogo Task,2024.2.4,60.04148867704207,2025-05-01 20h03.21.591103 +0200,
block/CondBlock2.xlsx,You are about to start a block of type 2 trials.,28,28,0,Go,Go,0.19,0.05,0.2,space,blue,horizontal,space,300.98390010010917,None,space,1,0.20578429999295622,None,,,,0,1,1,1,0,28,28,28,770.3358534000581,,,,,,,,,,,,,,,,770.3195129999658,770.3358534000581,771.0186382000102,771.0352411000058,771.5180329000577,771.50235970004,771.5030717999907,771.5180329000577,771.7179838999873,771.901128700003,771.901128700003,772.1192631999729,space,1,0.20578429999295622,None,772.1224770999979,772.6338408000302,773.6173647000687,,,773.6330216000788,,,,,,,,,,,,,,,007,002,2025-05-01_20h03.09.642,Cued GoNogo Task,2024.2.4,60.04148867704207,2025-05-01 20h03.21.591103 +0200,
block/CondBlock2.xlsx,You are about to start a block of type 2 trials.,29,29,0,Go,Go,0.18,0.05,0.2,space,blue,horizontal,space,300.98390010010917,None,space,1,0.3883841000497341,None,,,,0,1,1,1,0,29,29,29,773.6330216000788,,,,,,,,,,,,,,,,773.6178252999671,773.6330216000788,774.3324093000265,774.3324093000265,774.8320709000109,774.8158788000001,774.8163233000087,774.8320709000109,775.01543150004,775.1984060000395,775.1984060000395,775.5991725000786,space,1,0.3883841000497341,None,775.6021193000488,776.1142540000146,777.0976442999672,,,777.1133894000668,,,,,,,,,,,,,,,007,002,2025-05-01_20h03.09.642,Cued GoNogo Task,2024.2.4,60.04148867704207,2025-05-01 20h03.21.591103 +0200,
block/CondBlock2.xlsx,You are about to start a block of type 2 trials.,30,30,0,NoGo,NoGo,0.23,0.2,0.05,none,blue,vertical,space,300.98390010010917,None,None,1,,,,,,0,1,1,1,0,30,30,30,777.1133894000668,,,,,,,,,,,,,,,,777.0979524999857,777.1133894000668,777.8129975000629,777.8129975000629,778.3124878000235,778.2967536000069,778.2974213999696,778.3124878000235,778.5458103000419,778.7289156999905,778.7289156999905,779.2126600000774,None,1,,,779.2166715000058,779.7279147000518,780.7111629999708,779.2285684000235,779.2285684000235,780.727322199964,,,,,,,,,,,,,,,007,002,2025-05-01_20h03.09.642,Cued GoNogo Task,2024.2.4,60.04148867704207,2025-05-01 20h03.21.591103 +0200,
block/CondBlock2.xlsx,You are about to start a block of type 2 trials.,31,31,0,Go,Go,0.43,0.2,0.05,space,green,vertical,space,300.98390010010917,None,space,1,0.4202900999225676,None,,,,0,1,1,1,0,31,31,31,780.727322199964,,,,,,,,,,,,,,,,780.7114448000211,780.727322199964,781.4265597000485,781.4265597000485,781.9262731000781,781.9103080000496,781.911034299992,781.9262731000781,782.3592604000587,782.5423968000105,782.5423968000105,782.9765884999651,space,1,0.4202900999225676,None,782.9801268000156,783.4917834000662,784.490918800002,,,,,,,,,,,,,,,,,,007,002,2025-05-01_20h03.09.642,Cued GoNogo Task,2024.2.4,60.04148867704207,2025-05-01 20h03.21.591103 +0200,
block/CondBlock2.xlsx,You are about to start a block of type 2 trials.,32,32,0,Go,Go,0.13,0.05,0.2,space,blue,horizontal,space,300.98390010010917,None,space,1,0.2840002999873832,None,,,,0,1,1,1,0,32,32,32,784.5072663000319,,,,,,,,,,,,,,,,784.491221299977,784.5072663000319,785.1902691000141,785.206980100018,785.6897058000322,785.6742234000703,785.6748200000729,785.6897058000322,785.8229498000583,786.0061504000332,786.0061504000332,786.3073164999951,space,1,0.2840002999873832,None,786.3117753000697,786.8222160000587,787.8055798000423,,,787.8212489000289,,,,,,,,,,,,,,,007,002,2025-05-01_20h03.09.642,Cued GoNogo Task,2024.2.4,60.04148867704207,2025-05-01 20h03.21.591103 +0200,
block/CondBlock2.xlsx,You are about to start a block of type 2 trials.,33,33,0,Go,Go,0.45,0.05,0.2,space,green,horizontal,space,300.98390010010917,None,space,1,0.2932729000458494,None,,,,0,1,1,1,0,33,33,33,787.8212489000289,,,,,,,,,,,,,,,,787.805926800007,787.8212489000289,788.5207556000678,788.5207556000678,789.0204118000111,789.0044356000144,789.0050702000735,789.0204118000111,789.4698815000011,789.66985080007,789.66985080007,789.9707715000259,space,1,0.2932729000458494,None,789.9758456000127,790.4859092000406,791.4697321000276,,,791.4849977999693,,,,,,,,,,,,,,,007,002,2025-05-01_20h03.09.642,Cued GoNogo Task,2024.2.4,60.04148867704207,2025-05-01 20h03.21.591103 +0200,
block/CondBlock2.xlsx,You are about to start a block of type 2 trials.,34,34,0,Go,Go,0.14,0.2,0.05,space,blue,vertical,space,300.98390010010917,None,space,1,0.33723549998831004,None,,,,0,1,1,1,0,34,34,34,791.4849977999693,,,,,,,,,,,,,,,,791.4700765999733,791.4849977999693,792.184410899994,792.184410899994,792.684063200024,792.6680467000697,792.6686377000296,792.684063200024,792.833988700062,793.0172805000329,793.0172805000329,793.3680548999691,space,1,0.33723549998831004,None,793.3725075999973,793.8829873000504,794.8660820999648,,,794.8821950000711,,,,,,,,,,,,,,,007,002,2025-05-01_20h03.09.642,Cued GoNogo Task,2024.2.4,60.04148867704207,2025-05-01 20h03.21.591103 +0200,
block/CondBlock2.xlsx,You are about to start a block of type 2 trials.,35,35,0,Go,Go,0.11,0.2,0.05,space,blue,vertical,space,300.98390010010917,None,space,1,0.28684650000650436,None,,,,0,1,1,1,0,35,35,35,794.8821950000711,,,,,,,,,,,,,,,,794.8663158999989,794.8821950000711,795.5813896000618,795.5813896000618,796.0812149000121,796.0653350000503,796.0659185000695,796.0812149000121,796.1980553000467,796.3810556000099,796.3810556000099,796.6824170000618,space,1,0.28684650000650436,None,796.6872038000729,797.1968941000523,798.1804575000424,,,798.1962865999667,,,,,,,,,,,,,,,007,002,2025-05-01_20h03.09.642,Cued GoNogo Task,2024.2.4,60.04148867704207,2025-05-01 20h03.21.591103 +0200,
block/CondBlock2.xlsx,You are about to start a block of type 2 trials.,36,36,0,Go,Go,0.15,0.05,0.2,space,green,horizontal,space,300.98390010010917,None,space,1,0.28993530001025647,None,,,,0,1,1,1,0,36,36,36,798.1962865999667,,,,,,,,,,,,,,,,798.1807588000083,798.1962865999667,798.8955360000255,798.8955360000255,799.3951530000195,799.3791791000403,799.3797240999993,799.3951530000195,799.5450203999644,799.7448969000252,799.7448969000252,800.0461643000599,space,1,0.28993530001025647,None,800.0500625000568,800.5609931000508,801.5601658000378,,,,,,,,,,,,,,,,,,007,002,2025-05-01_20h03.09.642,Cued GoNogo Task,2024.2.4,60.04148867704207,2025-05-01 20h03.21.591103 +0200,
block/CondBlock2.xlsx,You are about to start a block of type 2 trials.,37,37,0,Go,Go,0.15,0.2,0.05,space,green,vertical,space,300.98390010010917,None,space,1,0.3906733999028802,None,,,,0,1,1,1,0,37,37,37,801.576646600035,,,,,,,,,,,,,,,,801.5604946999811,801.576646600035,802.259298000019,802.2759749999968,802.7590391000267,802.7430643000407,802.7437729999656,802.7590391000267,802.908876499976,803.1086808000691,803.1086808000691,803.5094969000202,space,1,0.3906733999028802,None,803.513015500037,804.0247182999738,805.0086728000315,,,805.0239580000052,,,,,,,,,,,,,,,007,002,2025-05-01_20h03.09.642,Cued GoNogo Task,2024.2.4,60.04148867704207,2025-05-01 20h03.21.591103 +0200,
block/CondBlock2.xlsx,You are about to start a block of type 2 trials.,38,38,0,NoGo,NoGo,0.14,0.2,0.05,none,green,vertical,space,300.98390010010917,None,None,1,,,,,,0,1,1,1,0,38,38,38,805.0239580000052,,,,,,,,,,,,,,,,805.0089785000309,805.0239580000052,805.7233602000633,805.7233602000633,806.2229593000375,806.2068129000254,806.2074608000694,806.2229593000375,806.3728717999766,806.555808300036,806.555808300036,807.039539200021,None,1,,,807.0416590999812,807.5552136000479,808.5384992000181,807.0554135000566,807.0554135000566,808.5543035999872,,,,,,,,,,,,,,,007,002,2025-05-01_20h03.09.642,Cued GoNogo Task,2024.2.4,60.04148867704207,2025-05-01 20h03.21.591103 +0200,
block/CondBlock2.xlsx,You are about to start a block of type 2 trials.,39,39,0,Go,Go,0.46,0.2,0.05,space,green,vertical,space,300.98390010010917,None,space,1,0.3289911000756547,None,,,,0,1,1,1,0,39,39,39,808.5543035999872,,,,,,,,,,,,,,,,808.5389263000106,808.5543035999872,809.2537109999685,809.2537109999685,809.753084099968,809.7372690000338,809.7379013000755,809.753084099968,810.219693699968,810.4027144999709,810.4027144999709,810.7371593000134,space,1,0.3289911000756547,None,810.7411517000291,811.2520917999791,812.2352713000728,,,812.2512781000696,,,,,,,,,,,,,,,007,002,2025-05-01_20h03.09.642,Cued GoNogo Task,2024.2.4,60.04148867704207,2025-05-01 20h03.21.591103 +0200,
block/CondBlock2.xlsx,You are about to start a block of type 2 trials.,40,40,0,Go,Go,0.5,0.05,0.2,space,blue,horizontal,space,300.98390010010917,None,space,1,0.3323051000479609,None,,,,0,1,1,1,0,40,40,40,812.2512781000696,,,,,,,,,,,,,,,,812.2354570999742,812.2512781000696,812.9507073999848,812.9507073999848,813.4503322000382,813.4344658000628,813.4352166000754,813.4503322000382,813.9499206000473,814.1498191000428,814.1498191000428,814.4850555000594,space,1,0.3323051000479609,None,814.4893729999894,814.9990841000108,815.9825451000361,,,815.9981344999978,,,,,,,,,,,,,,,007,002,2025-05-01_20h03.09.642,Cued GoNogo Task,2024.2.4,60.04148867704207,2025-05-01 20h03.21.591103 +0200,
block/CondBlock2.xlsx,You are about to start a block of type 2 trials.,41,41,0,Go,Go,0.16,0.05,0.2,space,green,horizontal,space,300.98390010010917,None,space,1,0.3120235000969842,None,,,,0,1,1,1,0,41,41,41,815.9981344999978,,,,,,,,,,,,,,,,815.9828666000394,815.9981344999978,816.6976219000062,816.6976219000062,817.197282499983,817.1814586999826,817.1821170999901,817.197282499983,817.363594399998,817.546901899972,817.546901899972,817.8644318999723,space,1,0.3120235000969842,None,817.8684204000747,818.3797449000413,819.3627800999675,,,819.3790246000281,,,,,,,,,,,,,,,007,002,2025-05-01_20h03.09.642,Cued GoNogo Task,2024.2.4,60.04148867704207,2025-05-01 20h03.21.591103 +0200,
