Block,blockMsg,thisN,thisTrialN,thisRepN,CueType,StimType,CueTime,Stim_Height,Stim_Width,CRESP,Color,Orientation,key_resp_2.keys,key_resp_2.rt,key_resp_2.duration,Key_Resp.keys,Key_Resp.corr,Key_Resp.rt,Key_Resp.duration,key_resp_3.keys,key_resp_3.rt,key_resp_3.duration,Blocks.thisRepN,Blocks.thisTrialN,Blocks.thisN,Blocks.thisIndex,Trials.thisRepN,Trials.thisTrialN,Trials.thisN,Trials.thisIndex,thisRow.t,notes,TaskIntro.started,fixation.started,key_resp.started,TaskIntro.stopped,key_resp.keys,key_resp.rt,key_resp.duration,BlockStart.started,BlockStart_Msg.started,key_resp_2.started,BlockStart.stopped,Blocks.key_resp_2.keys,Blocks.key_resp_2.rt,Blocks.key_resp_2.duration,Fixation.started,FixationPhase.started,Blank.started,FixationPhase.stopped,Blank.stopped,Fixation.stopped,Trial.started,Cue.started,Cue.stopped,GoNogo_Stim.started,Key_Resp.started,Trial.stopped,Trials.Key_Resp.keys,Trials.Key_Resp.corr,Trials.Key_Resp.rt,Trials.Key_Resp.duration,Feedback.started,Feedback_Present.started,Feedback_Present.stopped,Feedback.stopped,GoNogo_Stim.stopped,Key_Resp.stopped,BlockEnd.started,BlockEnd_Msg.started,key_resp_3.started,BlockEnd.stopped,Blocks.key_resp_3.keys,Blocks.key_resp_3.rt,Blocks.key_resp_3.duration,TaskEnd.started,ThankYou.started,key_resp_4.started,TaskEnd.stopped,key_resp_4.keys,key_resp_4.rt,key_resp_4.duration,participant,session,date,expName,psychopyVersion,frameRate,expStart,
,,,,,,,,,,,,,,,,,,,,,,,,,,,,,,,,,0.0014773000730201602,0.004226000048220158,0.004226000048220158,9.392111200024374,space,9.381875999970362,None,,,,,,,,,,,,,,,,,,,,,,,,,,,,,,,,,,,,,,,,,,,,011,002,2025-05-03_00h37.22.654,Cued GoNogo Task,2024.2.4,60.040299048035,2025-05-03 00h37.35.996371 +0200,
block/CondBlock1.xlsx,You are about to start a block of type 1 trials.,0,0,0,Go,Go,0.13,0.05,0.2,space,blue,horizontal,space,0.9659128000494093,None,space,1,0.3959331000223756,None,,,,0,0,0,0,0,0,0,0,10.449211600003764,,,,,,,,,9.40235530002974,9.404768000007607,9.404768000007607,10.388439200003631,space,0.9659128000494093,None,10.446514300070703,10.449211600003764,11.102834400022402,11.152945800102316,11.602456000051461,11.586620500078425,11.58747010002844,11.602456000051461,11.735594000085257,11.918822800042108,11.918822800042108,12.320004500099458,space,1,0.3959331000223756,None,12.332916400046088,12.834741200087592,13.833892000024207,13.81804949999787,,,,,,,,,,,,,,,,,011,002,2025-05-03_00h37.22.654,Cued GoNogo Task,2024.2.4,60.040299048035,2025-05-03 00h37.35.996371 +0200,
block/CondBlock1.xlsx,You are about to start a block of type 1 trials.,1,1,0,NoGo,NoGo,0.43,0.05,0.2,none,blue,horizontal,space,0.9659128000494093,None,None,1,,,,,,0,0,0,0,0,1,1,1,13.833892000024207,,,,,,,,,,,,,,,,13.818363500060514,13.833892000024207,14.533355400082655,14.533355400082655,15.033063000068069,15.016849700012244,15.017414000001736,15.033063000068069,15.465673900092952,15.66560400009621,15.66560400009621,16.14925170002971,None,1,,,16.15151140000671,16.665063800057396,17.664106500102207,17.648210700019263,16.165174600086175,16.165174600086175,,,,,,,,,,,,,,,011,002,2025-05-03_00h37.22.654,Cued GoNogo Task,2024.2.4,60.040299048035,2025-05-03 00h37.35.996371 +0200,
block/CondBlock1.xlsx,You are about to start a block of type 1 trials.,2,2,0,Go,Go,0.12,0.2,0.05,space,blue,vertical,space,0.9659128000494093,None,space,1,0.2787901000119746,None,,,,0,0,0,0,0,2,2,2,17.664106500102207,,,,,,,,,,,,,,,,17.648550900048576,17.664106500102207,18.36341109999921,18.36341109999921,18.862892900011502,18.847114700009115,18.847793200053275,18.862892900011502,18.99618920008652,19.179320800001733,19.179320800001733,19.463974000071175,space,1,0.2787901000119746,None,19.470756600028835,19.97869870008435,20.97819170006551,20.962049500085413,,,,,,,,,,,,,,,,,011,002,2025-05-03_00h37.22.654,Cued GoNogo Task,2024.2.4,60.040299048035,2025-05-03 00h37.35.996371 +0200,
block/CondBlock1.xlsx,You are about to start a block of type 1 trials.,3,3,0,NoGo,NoGo,0.18,0.2,0.05,none,green,vertical,space,0.9659128000494093,None,None,1,,,,,,0,0,0,0,0,3,3,3,20.97819170006551,,,,,,,,,,,,,,,,20.96232950000558,20.97819170006551,21.67733020009473,21.67733020009473,22.176998700015247,22.161050700000487,22.161741000018083,22.176998700015247,22.360012800083496,22.543278200086206,22.543278200086206,23.02678330009803,None,1,,,23.028815500088967,23.525977000012062,24.525065700057894,24.50904390006326,23.042891000048257,23.042891000048257,,,,,,,,,,,,,,,011,002,2025-05-03_00h37.22.654,Cued GoNogo Task,2024.2.4,60.040299048035,2025-05-03 00h37.35.996371 +0200,
block/CondBlock1.xlsx,You are about to start a block of type 1 trials.,4,4,0,Go,Go,0.24,0.05,0.2,space,green,horizontal,space,0.9659128000494093,None,space,1,0.26818479993380606,None,,,,0,0,0,0,0,4,4,4,24.525065700057894,,,,,,,,,,,,,,,,24.509345300029963,24.541603700025007,25.241129800095223,25.241129800095223,25.740732500096783,25.72466410009656,25.725299200043082,25.740732500096783,25.99055860005319,26.173643700079992,26.173643700079992,26.458003800013103,space,1,0.26818479993380606,None,26.46329300000798,26.972984799998812,27.97208119998686,27.956158800050616,,,,,,,,,,,,,,,,,011,002,2025-05-03_00h37.22.654,Cued GoNogo Task,2024.2.4,60.040299048035,2025-05-03 00h37.35.996371 +0200,
block/CondBlock1.xlsx,You are about to start a block of type 1 trials.,5,5,0,Go,Go,0.21,0.05,0.2,space,blue,horizontal,space,0.9659128000494093,None,space,1,0.2944413999794051,None,,,,0,0,0,0,0,5,5,5,27.97208119998686,,,,,,,,,,,,,,,,27.956408200087026,27.97208119998686,28.671456800075248,28.671456800075248,29.171248500002548,29.155770700075664,29.156670600059442,29.171248500002548,29.387736600008793,29.570941900019534,29.570941900019534,29.871743600000627,space,1,0.2944413999794051,None,29.87591110006906,30.386843100073747,31.385953500051983,31.370229299995117,,,,,,,,,,,,,,,,,011,002,2025-05-03_00h37.22.654,Cued GoNogo Task,2024.2.4,60.040299048035,2025-05-03 00h37.35.996371 +0200,
block/CondBlock1.xlsx,You are about to start a block of type 1 trials.,6,6,0,Go,Go,0.11,0.2,0.05,space,blue,vertical,space,0.9659128000494093,None,space,1,0.36494220001623034,None,,,,0,0,0,0,0,6,6,6,31.385953500051983,,,,,,,,,,,,,,,,31.37049460003618,31.385953500051983,32.08545470004901,32.08545470004901,32.58499340002891,32.56943690008484,32.57010520005133,32.58499340002891,32.70169000001624,32.88490629999433,32.88490629999433,33.25313220010139,space,1,0.36494220001623034,None,33.257409700076096,33.767422200064175,34.76658290007617,34.75082509999629,,,,,,,,,,,,,,,,,011,002,2025-05-03_00h37.22.654,Cued GoNogo Task,2024.2.4,60.040299048035,2025-05-03 00h37.35.996371 +0200,
block/CondBlock1.xlsx,You are about to start a block of type 1 trials.,7,7,0,Go,Go,0.15,0.2,0.05,space,blue,vertical,space,0.9659128000494093,None,space,1,0.2699700999073684,None,,,,0,0,0,0,0,7,7,7,34.76658290007617,,,,,,,,,,,,,,,,34.75109230005182,34.76658290007617,35.466130800079554,35.466130800079554,35.9656810000306,35.94964870007243,35.950346800033,35.9656810000306,36.11537730006967,36.31539190001786,36.31539190001786,36.59954610001296,space,1,0.2699700999073684,None,36.60450720007066,37.11465350002982,38.11368870001752,38.09827210009098,,,,,,,,,,,,,,,,,011,002,2025-05-03_00h37.22.654,Cued GoNogo Task,2024.2.4,60.040299048035,2025-05-03 00h37.35.996371 +0200,
block/CondBlock1.xlsx,You are about to start a block of type 1 trials.,8,8,0,NoGo,NoGo,0.3,0.05,0.2,none,blue,horizontal,space,0.9659128000494093,None,None,1,,,,,,0,0,0,0,0,8,8,8,38.11368870001752,,,,,,,,,,,,,,,,38.09868860000279,38.11368870001752,38.81334400002379,38.81334400002379,39.31279250001535,39.29694350005593,39.29760650009848,39.31279250001535,39.61249690002296,39.81234730000142,39.81234730000142,40.29596590006258,None,1,,,40.29851410002448,40.811434800038114,41.81091230001766,41.79470590001438,40.31206500006374,40.31206500006374,,,,,,,,,,,,,,,011,002,2025-05-03_00h37.22.654,Cued GoNogo Task,2024.2.4,60.040299048035,2025-05-03 00h37.35.996371 +0200,
block/CondBlock1.xlsx,You are about to start a block of type 1 trials.,9,9,0,NoGo,NoGo,0.17,0.05,0.2,none,blue,horizontal,space,0.9659128000494093,None,None,1,,,,,,0,0,0,0,0,9,9,9,41.81091230001766,,,,,,,,,,,,,,,,41.79499359999318,41.81091230001766,42.510286800097674,42.510286800097674,43.00992340000812,42.99387430003844,42.9944268000545,43.00992340000812,43.19302050000988,43.376169500057586,43.376169500057586,43.859619900002144,None,1,,,43.860082800034434,44.358657000004314,45.357905699987896,45.34193640004378,43.87582790001761,43.87582790001761,,,,,,,,,,,,,,,011,002,2025-05-03_00h37.22.654,Cued GoNogo Task,2024.2.4,60.040299048035,2025-05-03 00h37.35.996371 +0200,
block/CondBlock1.xlsx,You are about to start a block of type 1 trials.,10,10,0,NoGo,NoGo,0.26,0.2,0.05,none,green,vertical,space,0.9659128000494093,None,space,0,0.2841465000528842,None,,,,0,0,0,0,0,10,10,10,45.357905699987896,,,,,,,,,,,,,,,,45.34217429999262,45.37458060006611,46.07392490003258,46.07392490003258,46.573528000037186,46.55752410006244,46.558069200022146,46.573528000037186,46.83987840008922,47.02314110007137,47.02314110007137,47.3238912000088,space,0,0.2841465000528842,None,47.33157600008417,47.839118400006555,48.838328600046225,48.82246570009738,,,,,,,,,,,,,,,,,011,002,2025-05-03_00h37.22.654,Cued GoNogo Task,2024.2.4,60.040299048035,2025-05-03 00h37.35.996371 +0200,
block/CondBlock1.xlsx,You are about to start a block of type 1 trials.,11,11,0,Go,Go,0.27,0.05,0.2,space,green,horizontal,space,0.9659128000494093,None,space,1,0.39443310000933707,None,,,,0,0,0,0,0,11,11,11,48.838328600046225,,,,,,,,,,,,,,,,48.82275530009065,48.838328600046225,49.537902100011706,49.537902100011706,50.03745260008145,50.02152070007287,50.022305399994366,50.03745260008145,50.320545400027186,50.50357060006354,50.50357060006354,50.904437600052916,space,1,0.39443310000933707,None,50.90844710008241,51.41954820009414,52.41866950003896,52.40298150002491,,,,,,,,,,,,,,,,,011,002,2025-05-03_00h37.22.654,Cued GoNogo Task,2024.2.4,60.040299048035,2025-05-03 00h37.35.996371 +0200,
block/CondBlock1.xlsx,You are about to start a block of type 1 trials.,12,12,0,Go,Go,0.16,0.2,0.05,space,green,vertical,space,0.9659128000494093,None,space,1,0.3703844000119716,None,,,,0,0,0,0,0,12,12,12,52.41866950003896,,,,,,,,,,,,,,,,52.403305700048804,52.41866950003896,53.117971100029536,53.117971100029536,53.61765060003381,53.602117700036615,53.60280460002832,53.61765060003381,53.78413620009087,53.967568800086156,53.967568800086156,54.35160719999112,space,1,0.3703844000119716,None,54.35617780010216,54.86657400010154,55.86587580002379,55.849777000024915,,,,,,,,,,,,,,,,,011,002,2025-05-03_00h37.22.654,Cued GoNogo Task,2024.2.4,60.040299048035,2025-05-03 00h37.35.996371 +0200,
block/CondBlock1.xlsx,You are about to start a block of type 1 trials.,13,13,0,Go,Go,0.13,0.2,0.05,space,green,vertical,space,0.9659128000494093,None,space,1,0.4127301999833435,None,,,,0,0,0,0,0,13,13,13,55.86587580002379,,,,,,,,,,,,,,,,55.850025100051425,55.86587580002379,56.565146400011145,56.565146400011145,57.064905200037174,57.04906079999637,57.049703099997714,57.064905200037174,57.19806960003916,57.38126870000269,57.38126870000269,57.79899650008883,space,1,0.4127301999833435,None,57.80407579999883,58.3139380000066,59.313019299996085,59.29731290007476,,,,,,,,,,,,,,,,,011,002,2025-05-03_00h37.22.654,Cued GoNogo Task,2024.2.4,60.040299048035,2025-05-03 00h37.35.996371 +0200,
block/CondBlock1.xlsx,You are about to start a block of type 1 trials.,14,14,0,Go,Go,0.12,0.05,0.2,space,blue,horizontal,space,0.9659128000494093,None,space,1,0.4215207000961527,None,,,,0,0,0,0,0,14,14,14,59.313019299996085,,,,,,,,,,,,,,,,59.29760510008782,59.313019299996085,60.01235010009259,60.01235010009259,60.51233400008641,60.49619370000437,60.49687790009193,60.51233400008641,60.645318800001405,60.828465300030075,60.828465300030075,61.262962600099854,space,1,0.4215207000961527,None,61.267549699987285,61.77752620005049,62.77668010001071,62.76082389999647,,,,,,,,,,,,,,,,,011,002,2025-05-03_00h37.22.654,Cued GoNogo Task,2024.2.4,60.040299048035,2025-05-03 00h37.35.996371 +0200,
block/CondBlock1.xlsx,You are about to start a block of type 1 trials.,15,15,0,Go,Go,0.45,0.2,0.05,space,blue,vertical,space,0.9659128000494093,None,space,1,0.3612215999746695,None,,,,0,0,0,0,0,15,15,15,62.77668010001071,,,,,,,,,,,,,,,,62.76105860003736,62.77668010001071,63.476221100077964,63.476221100077964,63.975915000075474,63.96076750010252,63.961504700011574,63.975915000075474,64.42549940000754,64.62518600001931,64.62518600001931,64.99262929998804,space,1,0.3612215999746695,None,64.99600700009614,65.5080733000068,66.50719530007336,66.49147200002335,,,,,,,,,,,,,,,,,011,002,2025-05-03_00h37.22.654,Cued GoNogo Task,2024.2.4,60.040299048035,2025-05-03 00h37.35.996371 +0200,
block/CondBlock1.xlsx,You are about to start a block of type 1 trials.,16,16,0,NoGo,NoGo,0.14,0.2,0.05,none,green,vertical,space,0.9659128000494093,None,None,1,,,,,,0,0,0,0,0,16,16,16,66.50719530007336,,,,,,,,,,,,,,,,66.49177910003345,66.50719530007336,67.20671190007124,67.20671190007124,67.70611920009833,67.6903196000494,67.69105360005051,67.70611920009833,67.85588680009823,68.03921340010129,68.03921340010129,68.52289050002582,None,1,,,68.52517530007754,69.0384584000567,70.03751050005667,70.02167480008211,68.53886600001715,68.53886600001715,,,,,,,,,,,,,,,011,002,2025-05-03_00h37.22.654,Cued GoNogo Task,2024.2.4,60.040299048035,2025-05-03 00h37.35.996371 +0200,
block/CondBlock1.xlsx,You are about to start a block of type 1 trials.,17,17,0,Go,Go,0.12,0.05,0.2,space,green,horizontal,space,0.9659128000494093,None,space,1,0.43357910006307065,None,,,,0,0,0,0,0,17,17,17,70.03751050005667,,,,,,,,,,,,,,,,70.02197280002292,70.03751050005667,70.73709120007697,70.73709120007697,71.23664600006305,71.22079950000625,71.22149840008933,71.23664600006305,71.36978260008618,71.55295420007315,71.55295420007315,71.98953930009156,space,1,0.43357910006307065,None,71.99447959999088,72.50216730008833,73.50124300003517,73.48538170009851,,,,,,,,,,,,,,,,,011,002,2025-05-03_00h37.22.654,Cued GoNogo Task,2024.2.4,60.040299048035,2025-05-03 00h37.35.996371 +0200,
block/CondBlock1.xlsx,You are about to start a block of type 1 trials.,18,18,0,Go,Go,0.47,0.2,0.05,space,blue,vertical,space,0.9659128000494093,None,space,1,0.419039300060831,None,,,,0,0,0,0,0,18,18,18,73.50124300003517,,,,,,,,,,,,,,,,73.48563180002384,73.50124300003517,74.20067260006908,74.20067260006908,74.70041010004934,74.68446910008788,74.68504300003406,74.70041010004934,75.1834380000364,75.36639990005642,75.36639990005642,75.80086720001418,space,1,0.419039300060831,None,75.8056306000799,76.31562610005494,77.31488890002947,77.29887510009576,,,,,,,,,,,,,,,,,011,002,2025-05-03_00h37.22.654,Cued GoNogo Task,2024.2.4,60.040299048035,2025-05-03 00h37.35.996371 +0200,
block/CondBlock1.xlsx,You are about to start a block of type 1 trials.,19,19,0,Go,Go,0.18,0.2,0.05,space,green,vertical,space,0.9659128000494093,None,None,0,,,,,,0,0,0,0,0,19,19,19,77.31488890002947,,,,,,,,,,,,,,,,77.29925929999445,77.31488890002947,78.01441659999546,78.01441659999546,78.51393120002467,78.4981337999925,78.498836300103,78.51393120002467,78.69713280000724,78.88034380006138,78.88034380006138,79.36388690001331,None,0,,,79.36733869998716,79.8793408999918,80.87866560008842,80.86316290008835,79.37977650004905,79.37977650004905,,,,,,,,,,,,,,,011,002,2025-05-03_00h37.22.654,Cued GoNogo Task,2024.2.4,60.040299048035,2025-05-03 00h37.35.996371 +0200,
block/CondBlock1.xlsx,You are about to start a block of type 1 trials.,20,20,0,Go,Go,0.19,0.2,0.05,space,blue,vertical,space,0.9659128000494093,None,space,1,0.34167930006515235,None,,,,0,0,0,0,0,20,20,20,80.87866560008842,,,,,,,,,,,,,,,,80.86357320006937,80.87866560008842,81.57819440006278,81.57819440006278,82.07748680002987,82.06203590007499,82.06280940002762,82.07748680002987,82.27731580007821,82.46075090009253,82.46075090009253,82.8122549999971,space,1,0.34167930006515235,None,82.81714140006807,83.32664520002436,84.32582240004558,84.309928300092,,,,,,,,,,,,,,,,,011,002,2025-05-03_00h37.22.654,Cued GoNogo Task,2024.2.4,60.040299048035,2025-05-03 00h37.35.996371 +0200,
block/CondBlock1.xlsx,You are about to start a block of type 1 trials.,21,21,0,Go,Go,0.14,0.2,0.05,space,blue,vertical,space,0.9659128000494093,None,space,1,0.28836840006988496,None,,,,0,0,0,0,0,21,21,21,84.32582240004558,,,,,,,,,,,,,,,,84.31018050003331,84.32582240004558,85.02527850004844,85.02527850004844,85.52490519999992,85.50902390002739,85.50956530007534,85.52490519999992,85.67478810006287,85.85786910005845,85.85786910005845,86.15874630003236,space,1,0.28836840006988496,None,86.16202590009198,86.67380940006115,87.6729363000486,87.65727450000122,,,,,,,,,,,,,,,,,011,002,2025-05-03_00h37.22.654,Cued GoNogo Task,2024.2.4,60.040299048035,2025-05-03 00h37.35.996371 +0200,
block/CondBlock1.xlsx,You are about to start a block of type 1 trials.,22,22,0,Go,Go,0.15,0.2,0.05,space,blue,vertical,space,0.9659128000494093,None,space,1,0.30820309999398887,None,,,,0,0,0,0,0,22,22,22,87.6729363000486,,,,,,,,,,,,,,,,87.65756540000439,87.6729363000486,88.37257910007611,88.37257910007611,88.87192870001309,88.85584400000516,88.85627970006317,88.87192870001309,89.02176670008339,89.22166180005297,89.22166180005297,89.53923090000171,space,1,0.30820309999398887,None,89.54338769998867,90.0544738000026,91.05358710000291,91.03767770004924,,,,,,,,,,,,,,,,,011,002,2025-05-03_00h37.22.654,Cued GoNogo Task,2024.2.4,60.040299048035,2025-05-03 00h37.35.996371 +0200,
block/CondBlock1.xlsx,You are about to start a block of type 1 trials.,23,23,0,Go,Go,0.23,0.05,0.2,space,green,horizontal,space,0.9659128000494093,None,space,1,0.30920989997684956,None,,,,0,0,0,0,0,23,23,23,91.05358710000291,,,,,,,,,,,,,,,,91.03793870005757,91.05358710000291,91.75291390006896,91.75291390006896,92.25258990004659,92.2367196000414,92.23731900006533,92.25258990004659,92.48562430008315,92.66890280006919,92.66890280006919,92.9865046000341,space,1,0.30920989997684956,None,92.9901146000484,93.50166270008776,94.50078390003182,94.48477620002814,,,,,,,,,,,,,,,,,011,002,2025-05-03_00h37.22.654,Cued GoNogo Task,2024.2.4,60.040299048035,2025-05-03 00h37.35.996371 +0200,
block/CondBlock1.xlsx,You are about to start a block of type 1 trials.,24,24,0,Go,Go,0.2,0.2,0.05,space,blue,vertical,space,0.9659128000494093,None,space,1,0.2698266999796033,None,,,,0,0,0,0,0,24,24,24,94.50078390003182,,,,,,,,,,,,,,,,94.48503560002428,94.50078390003182,95.2001631000312,95.2001631000312,95.69995680009015,95.68386390001979,95.68452380003873,95.69995680009015,95.8995146000525,96.09958060004283,96.09958060004283,96.38377010007389,space,1,0.2698266999796033,None,96.38724030007143,96.8988929000916,97.8980695999926,97.88193640008103,,,,,,,,,,,,,,,,,011,002,2025-05-03_00h37.22.654,Cued GoNogo Task,2024.2.4,60.040299048035,2025-05-03 00h37.35.996371 +0200,
block/CondBlock1.xlsx,You are about to start a block of type 1 trials.,25,25,0,Go,Go,0.15,0.2,0.05,space,blue,vertical,space,0.9659128000494093,None,space,1,0.4120541999582201,None,,,,0,0,0,0,0,25,25,25,97.8980695999926,,,,,,,,,,,,,,,,97.88219989999197,97.8980695999926,98.5974894000683,98.5974894000683,99.09701500006486,99.08100740006194,99.08162650000304,99.09701500006486,99.24694720003754,99.44681590003893,99.44681590003893,99.86401490005665,space,1,0.4120541999582201,None,99.86772320000455,100.37931450002361,101.37834220007062,101.36250450008083,,,,,,,,,,,,,,,,,011,002,2025-05-03_00h37.22.654,Cued GoNogo Task,2024.2.4,60.040299048035,2025-05-03 00h37.35.996371 +0200,
block/CondBlock1.xlsx,You are about to start a block of type 1 trials.,26,26,0,NoGo,NoGo,0.2,0.2,0.05,none,blue,vertical,space,0.9659128000494093,None,None,1,,,,,,0,0,0,0,0,26,26,26,101.37834220007062,,,,,,,,,,,,,,,,101.36277060001157,101.37834220007062,102.07802560005803,102.07802560005803,102.57738660008181,102.56185540009756,102.56263050006237,102.57738660008181,102.7772364000557,102.97707380005158,102.97707380005158,103.46089109999593,None,1,,,103.46319410006981,103.97624360001646,104.97535830002744,104.95917809999082,103.47656000009738,103.47656000009738,,,,,,,,,,,,,,,011,002,2025-05-03_00h37.22.654,Cued GoNogo Task,2024.2.4,60.040299048035,2025-05-03 00h37.35.996371 +0200,
block/CondBlock1.xlsx,You are about to start a block of type 1 trials.,27,27,0,Go,Go,0.29,0.05,0.2,space,green,horizontal,space,0.9659128000494093,None,space,1,0.2649510999908671,None,,,,0,0,0,0,0,27,27,27,104.97535830002744,,,,,,,,,,,,,,,,104.95934090006631,104.97535830002744,105.67493249999825,105.67493249999825,106.17429300001822,106.15898930002004,106.15940410003532,106.17429300001822,106.47426390007604,106.65738290001173,106.65738290001173,106.92553800006863,space,1,0.2649510999908671,None,106.92967590002809,107.44004530005623,108.43918970006052,108.42388210003264,,,,,,,,,,,,,,,,,011,002,2025-05-03_00h37.22.654,Cued GoNogo Task,2024.2.4,60.040299048035,2025-05-03 00h37.35.996371 +0200,
block/CondBlock1.xlsx,You are about to start a block of type 1 trials.,28,28,0,Go,Go,0.24,0.2,0.05,space,blue,vertical,space,0.9659128000494093,None,space,1,0.3309358999831602,None,,,,0,0,0,0,0,28,28,28,108.43918970006052,,,,,,,,,,,,,,,,108.42429960006848,108.43918970006052,109.13878200005274,109.13878200005274,109.63836610002909,109.6225486000767,109.62309130001813,109.63836610002909,109.88813850004226,110.07135300000664,110.07135300000664,110.40537380008027,space,1,0.3309358999831602,None,110.40888650005218,110.92072880000342,,111.91975860006642,,,,,,,,,,,,,,,,,011,002,2025-05-03_00h37.22.654,Cued GoNogo Task,2024.2.4,60.040299048035,2025-05-03 00h37.35.996371 +0200,
block/CondBlock1.xlsx,You are about to start a block of type 1 trials.,29,29,0,Go,Go,0.15,0.05,0.2,space,green,horizontal,space,0.9659128000494093,None,space,1,0.41446430003270507,None,,,,0,0,0,0,0,29,29,29,111.93654620007146,,,,,,,,,,,,,,,,111.91998120001517,111.93654620007146,112.61932110006455,112.6358859000029,113.11879249999765,113.10287230007816,113.10358890006319,113.11879249999765,113.2685256000841,113.4684302000096,113.4684302000096,113.88601040001959,space,1,0.41446430003270507,None,113.88918270007707,114.40098700008821,115.40027790004387,115.3841178000439,,,,,,,,,,,,,,,,,011,002,2025-05-03_00h37.22.654,Cued GoNogo Task,2024.2.4,60.040299048035,2025-05-03 00h37.35.996371 +0200,
block/CondBlock1.xlsx,You are about to start a block of type 1 trials.,30,30,0,Go,Go,0.23,0.2,0.05,space,green,vertical,space,0.9659128000494093,None,None,0,,,,,,0,0,0,0,0,30,30,30,115.40027790004387,,,,,,,,,,,,,,,,115.38439400005154,115.40027790004387,116.09986409998965,116.09986409998965,116.59905760001857,116.58310470008291,116.58355340000708,116.59905760001857,116.8322737000417,117.0155888000736,117.0155888000736,117.49932100006845,None,0,,,117.50186250009574,118.01480790006462,,119.01384580007289,117.51505720010027,117.51505720010027,,,,,,,,,,,,,,,011,002,2025-05-03_00h37.22.654,Cued GoNogo Task,2024.2.4,60.040299048035,2025-05-03 00h37.35.996371 +0200,
block/CondBlock1.xlsx,You are about to start a block of type 1 trials.,31,31,0,Go,Go,0.28,0.2,0.05,space,green,vertical,space,0.9659128000494093,None,space,1,0.3392783000599593,None,,,,0,0,0,0,0,31,31,31,119.0303843000438,,,,,,,,,,,,,,,,119.01404470007401,119.0303843000438,119.71328970009927,119.72994360001758,120.21286030008923,120.19673560000956,120.19711410009768,120.21286030008923,120.49610900005791,120.67928170005325,120.67928170005325,121.02998360001948,space,1,0.3392783000599593,None,121.03332480008248,121.54523930000141,,122.54426340002101,,,,,,,,,,,,,,,,,011,002,2025-05-03_00h37.22.654,Cued GoNogo Task,2024.2.4,60.040299048035,2025-05-03 00h37.35.996371 +0200,
block/CondBlock1.xlsx,You are about to start a block of type 1 trials.,32,32,0,Go,Go,0.19,0.2,0.05,space,green,vertical,space,0.9659128000494093,None,space,1,0.3792654999997467,None,,,,0,0,0,0,0,32,32,32,122.56085200002417,,,,,,,,,,,,,,,,122.54446150001604,122.56085200002417,123.24370870005805,123.2605035000015,123.74350880004931,123.72740630002227,123.7280594999902,123.74350880004931,123.94323710002936,124.1263450999977,124.1263450999977,124.51059310010169,space,1,0.3792654999997467,None,124.5142160000978,125.02557910000905,126.02483420004137,126.00901740009431,,,,,,,,,,,,,,,,,011,002,2025-05-03_00h37.22.654,Cued GoNogo Task,2024.2.4,60.040299048035,2025-05-03 00h37.35.996371 +0200,
block/CondBlock1.xlsx,You are about to start a block of type 1 trials.,33,33,0,Go,Go,0.12,0.2,0.05,space,green,vertical,space,0.9659128000494093,None,space,1,0.3175497999181971,None,,,,0,0,0,0,0,33,33,33,126.02483420004137,,,,,,,,,,,,,,,,126.0092681000242,126.02483420004137,126.7241151999915,126.7241151999915,127.22385950002354,127.20785720006097,127.20844760001637,127.22385950002354,127.35703120008111,127.54016840003897,127.54016840003897,127.87439780007116,space,1,0.3175497999181971,None,127.87722570006736,128.38933650008403,129.38875280006323,129.37270780000836,,,,,,,,,,,,,,,,,011,002,2025-05-03_00h37.22.654,Cued GoNogo Task,2024.2.4,60.040299048035,2025-05-03 00h37.35.996371 +0200,
block/CondBlock1.xlsx,You are about to start a block of type 1 trials.,34,34,0,Go,Go,0.18,0.2,0.05,space,blue,vertical,space,0.9659128000494093,None,space,1,0.31319879996590316,None,,,,0,0,0,0,0,34,34,34,129.38875280006323,,,,,,,,,,,,,,,,129.3730887999991,129.38875280006323,130.0882187000243,130.0882187000243,130.58773810009006,130.57188410009257,130.57260900002439,130.58773810009006,130.7709325000178,130.95405619998928,130.95405619998928,131.27154600003269,space,1,0.31319879996590316,None,131.27490240009502,131.7868209000444,132.7859643000411,132.77007860003505,,,,,,,,,,,,,,,,,011,002,2025-05-03_00h37.22.654,Cued GoNogo Task,2024.2.4,60.040299048035,2025-05-03 00h37.35.996371 +0200,
block/CondBlock1.xlsx,You are about to start a block of type 1 trials.,35,35,0,Go,Go,0.21,0.2,0.05,space,blue,vertical,space,0.9659128000494093,None,space,1,0.3613138999789953,None,,,,0,0,0,0,0,35,35,35,132.7859643000411,,,,,,,,,,,,,,,,132.7703571000602,132.7859643000411,133.48514040000737,133.48514040000737,133.98497330001555,133.9690131000243,133.96958890010137,133.98497330001555,134.2017041000072,134.38445210002828,134.38445210002828,134.75210490007885,space,1,0.3613138999789953,None,134.7552506000502,135.2671042000875,136.26656320004258,136.25040120002814,,,,,,,,,,,,,,,,,011,002,2025-05-03_00h37.22.654,Cued GoNogo Task,2024.2.4,60.040299048035,2025-05-03 00h37.35.996371 +0200,
block/CondBlock1.xlsx,You are about to start a block of type 1 trials.,36,36,0,Go,Go,0.2,0.2,0.05,space,green,vertical,space,0.9659128000494093,None,space,1,0.320817600004375,None,,,,0,0,0,0,0,36,36,36,136.26656320004258,,,,,,,,,,,,,,,,136.25069200003054,136.26656320004258,136.96584850002546,136.96584850002546,137.4655873000156,137.44937540008686,137.44991130009294,137.4655873000156,137.66514410008676,137.86511060001794,137.86511060001794,138.19945880002342,space,1,0.320817600004375,None,138.20400580007117,138.71442299999762,,139.71384010009933,,,,,,,,,,,,,,,,,011,002,2025-05-03_00h37.22.654,Cued GoNogo Task,2024.2.4,60.040299048035,2025-05-03 00h37.35.996371 +0200,
block/CondBlock1.xlsx,You are about to start a block of type 1 trials.,37,37,0,Go,Go,0.45,0.05,0.2,space,blue,horizontal,space,0.9659128000494093,None,space,1,0.3209424000233412,None,,,,0,0,0,0,0,37,37,37,139.73030440008733,,,,,,,,,,,,,,,,139.71412600006443,139.73030440008733,140.41291940002702,140.42970370000694,140.91260570008308,140.8970836000517,140.89759760000743,140.91260570008308,141.3620341999922,141.5621505000163,141.5621505000163,141.8963447000133,space,1,0.3209424000233412,None,141.89668940007687,142.41131049999967,143.41046949999873,143.39445060002618,,,,,,,,,,,,,,,,,011,002,2025-05-03_00h37.22.654,Cued GoNogo Task,2024.2.4,60.040299048035,2025-05-03 00h37.35.996371 +0200,
block/CondBlock1.xlsx,You are about to start a block of type 1 trials.,38,38,0,Go,Go,0.13,0.05,0.2,space,blue,horizontal,space,0.9659128000494093,None,space,1,0.29969940008595586,None,,,,0,0,0,0,0,38,38,38,143.41046949999873,,,,,,,,,,,,,,,,143.3947191000916,143.41046949999873,144.10985980008263,144.10985980008263,144.60950140003115,144.59344880003482,144.594008199987,144.60950140003115,144.74278970004525,144.92590610007755,144.92590610007755,145.22815980005544,space,1,0.29969940008595586,None,145.2320788000943,145.7418977000052,146.74101280001923,146.72534190001898,,,,,,,,,,,,,,,,,011,002,2025-05-03_00h37.22.654,Cued GoNogo Task,2024.2.4,60.040299048035,2025-05-03 00h37.35.996371 +0200,
block/CondBlock1.xlsx,You are about to start a block of type 1 trials.,39,39,0,Go,Go,0.46,0.2,0.05,space,blue,vertical,space,0.9659128000494093,None,space,1,0.356648699962534,None,,,,0,0,0,0,0,39,39,39,146.74101280001923,,,,,,,,,,,,,,,,146.72565250005573,146.74101280001923,147.44054099998903,147.44054099998903,147.940158200101,147.92436539998744,147.9250165000558,147.940158200101,148.4065579000162,148.58974470000248,148.58974470000248,148.95687049999833,space,1,0.356648699962534,None,148.96031380002387,149.47220030007884,150.4712853000965,150.4555014000507,,,,,,,,,,,,,,,,,011,002,2025-05-03_00h37.22.654,Cued GoNogo Task,2024.2.4,60.040299048035,2025-05-03 00h37.35.996371 +0200,
block/CondBlock1.xlsx,You are about to start a block of type 1 trials.,40,40,0,Go,Go,0.29,0.2,0.05,space,blue,vertical,space,0.9659128000494093,None,space,1,0.32120190002024174,None,,,,0,0,0,0,0,40,40,40,150.4712853000965,,,,,,,,,,,,,,,,150.45583550003357,150.4712853000965,151.17077220010106,151.17077220010106,151.67032590007875,151.65424679999705,151.65470700000878,151.67032590007875,151.9700853000395,152.15357550000772,152.15357550000772,152.4874179000035,space,1,0.32120190002024174,None,152.4908688000869,153.00275020010304,154.00173770007677,153.98582420009188,,,,,,,,,,,,,,,,,011,002,2025-05-03_00h37.22.654,Cued GoNogo Task,2024.2.4,60.040299048035,2025-05-03 00h37.35.996371 +0200,
block/CondBlock1.xlsx,You are about to start a block of type 1 trials.,41,41,0,Go,Go,0.22,0.2,0.05,space,blue,vertical,space,0.9659128000494093,None,space,1,0.3292226999765262,None,,,,0,0,0,0,0,41,41,41,154.00173770007677,,,,,,,,,,,,,,,,153.98609650006983,154.00173770007677,154.70114570006263,154.70114570006263,155.2008795000147,155.1851032000268,155.18585110001732,155.2008795000147,155.43407459999435,155.6171408999944,155.6171408999944,155.951381699997,space,1,0.3292226999765262,None,155.95553000003565,156.46643810009118,157.46562260005157,157.4496402000077,,,,,,,,,,,,,,,,,011,002,2025-05-03_00h37.22.654,Cued GoNogo Task,2024.2.4,60.040299048035,2025-05-03 00h37.35.996371 +0200,
block/CondBlock1.xlsx,You are about to start a block of type 1 trials.,42,42,0,Go,Go,0.49,0.2,0.05,space,blue,vertical,space,0.9659128000494093,None,space,1,0.4153189000207931,None,,,,0,0,0,0,0,42,42,42,157.46562260005157,,,,,,,,,,,,,,,,157.4499419000931,157.46562260005157,158.1649383000331,158.1649383000331,158.6646441000048,158.64857120008674,158.64915200008545,158.6646441000048,159.1641039000824,159.34760520001873,159.34760520001873,159.76573690003715,space,1,0.4153189000207931,None,159.77145080000628,160.28002490010113,161.2791831000941,161.26313780003693,,,,,,,,,,,,,,,,,011,002,2025-05-03_00h37.22.654,Cued GoNogo Task,2024.2.4,60.040299048035,2025-05-03 00h37.35.996371 +0200,
block/CondBlock1.xlsx,You are about to start a block of type 1 trials.,43,43,0,Go,Go,0.2,0.2,0.05,space,blue,vertical,space,0.9659128000494093,None,space,1,0.3647439000196755,None,,,,0,0,0,0,0,43,43,43,161.2791831000941,,,,,,,,,,,,,,,,161.26331519999076,161.2791831000941,161.978566100006,161.978566100006,162.47810800001025,162.46235490008257,162.46304390009027,162.47810800001025,162.6780485000927,162.8779451000737,162.8779451000737,163.24538570002187,space,1,0.3647439000196755,None,163.24881940009072,163.76049700006843,164.75976700009778,164.74348880001344,,,,,,,,,,,,,,,,,011,002,2025-05-03_00h37.22.654,Cued GoNogo Task,2024.2.4,60.040299048035,2025-05-03 00h37.35.996371 +0200,
block/CondBlock1.xlsx,You are about to start a block of type 1 trials.,44,44,0,Go,Go,0.3,0.05,0.2,space,blue,horizontal,space,0.9659128000494093,None,space,1,0.40834239998366684,None,,,,0,0,0,0,0,44,44,44,164.75976700009778,,,,,,,,,,,,,,,,164.74373500002548,164.75976700009778,165.4591044000117,165.4591044000117,165.95868330006488,165.94271990004927,165.9433857999975,165.95868330006488,166.2584037000779,166.45829370000865,166.45829370000865,166.87547680002172,space,1,0.40834239998366684,None,166.87903210008517,167.39087900007144,168.3900219000643,168.3738075000001,,,,,,,,,,,,,,,,,011,002,2025-05-03_00h37.22.654,Cued GoNogo Task,2024.2.4,60.040299048035,2025-05-03 00h37.35.996371 +0200,
block/CondBlock1.xlsx,You are about to start a block of type 1 trials.,45,45,0,NoGo,NoGo,0.21,0.05,0.2,none,green,horizontal,space,0.9659128000494093,None,None,1,,,,,,0,0,0,0,0,45,45,45,168.3900219000643,,,,,,,,,,,,,,,,168.3740280000493,168.3900219000643,169.08935130003374,169.08935130003374,169.58897740009706,169.5730729000643,169.5736568000866,169.58897740009706,169.80556220002472,169.98867240000982,169.98867240000982,170.47255569999106,None,1,,,170.47518930002116,170.9877814000938,171.9868953000987,171.97109260002617,170.48806820006575,170.48806820006575,,,,,,,,,,,,,,,011,002,2025-05-03_00h37.22.654,Cued GoNogo Task,2024.2.4,60.040299048035,2025-05-03 00h37.35.996371 +0200,
block/CondBlock1.xlsx,You are about to start a block of type 1 trials.,46,46,0,NoGo,NoGo,0.45,0.05,0.2,none,blue,horizontal,space,0.9659128000494093,None,space,0,0.2790894000791013,None,,,,0,0,0,0,0,46,46,46,171.9868953000987,,,,,,,,,,,,,,,,171.97136050008703,171.9868953000987,172.6864912000019,172.6864912000019,173.18619430006947,173.16982790001202,173.17028940003365,173.18619430006947,173.63569590006955,173.8355207000859,173.8355207000859,174.1195060000755,space,0,0.2790894000791013,None,174.1238143000519,174.63499749999028,175.63407290005125,175.61832740006503,,,,,,,,,,,,,,,,,011,002,2025-05-03_00h37.22.654,Cued GoNogo Task,2024.2.4,60.040299048035,2025-05-03 00h37.35.996371 +0200,
block/CondBlock1.xlsx,You are about to start a block of type 1 trials.,47,47,0,Go,Go,0.24,0.05,0.2,space,green,horizontal,space,0.9659128000494093,None,space,1,0.33578579989261925,None,,,,0,0,0,0,0,47,47,47,175.63407290005125,,,,,,,,,,,,,,,,175.61862399999518,175.63407290005125,176.33333980001044,176.33333980001044,176.8331174000632,176.817134300014,176.81782710005064,176.8331174000632,177.0830840000417,177.26595920010004,177.26595920010004,177.61734360002447,space,1,0.33578579989261925,None,177.6217103000963,178.13205120002385,179.13137720001396,179.1152854000684,,,,,,,,,,,,,,,,,011,002,2025-05-03_00h37.22.654,Cued GoNogo Task,2024.2.4,60.040299048035,2025-05-03 00h37.35.996371 +0200,
block/CondBlock1.xlsx,You are about to start a block of type 1 trials.,48,48,0,NoGo,NoGo,0.15,0.2,0.05,none,blue,vertical,space,0.9659128000494093,None,None,1,,,,,,0,0,0,0,0,48,48,48,179.13137720001396,,,,,,,,,,,,,,,,179.11554940009955,179.13137720001396,179.83059700008016,179.83059700008016,180.3301030000439,180.31433190009557,180.315014300053,180.3301030000439,180.4801974000875,180.67997759999707,180.67997759999707,181.1637389000971,None,1,,,181.16740540007595,181.67899170005694,182.67839580005966,182.66255250002723,181.1794619000284,181.1794619000284,,,,,,,,,,,,,,,011,002,2025-05-03_00h37.22.654,Cued GoNogo Task,2024.2.4,60.040299048035,2025-05-03 00h37.35.996371 +0200,
block/CondBlock1.xlsx,You are about to start a block of type 1 trials.,49,49,0,Go,Go,0.12,0.05,0.2,space,blue,horizontal,space,0.9659128000494093,None,space,1,0.3527780999429524,None,,,,0,0,0,0,0,49,49,49,182.67839580005966,,,,,,,,,,,,,,,,182.6629187000217,182.67839580005966,183.37766420003027,183.37766420003027,183.87736570008565,183.86163510009646,183.86250050005037,183.87736570008565,184.01043120003305,184.19361910002772,184.19361910002772,184.5613668001024,space,1,0.3527780999429524,None,184.5649609999964,185.07627479999792,186.07549730001483,186.05955560004804,,,,,,,,,,,,,,,,,011,002,2025-05-03_00h37.22.654,Cued GoNogo Task,2024.2.4,60.040299048035,2025-05-03 00h37.35.996371 +0200,
block/CondBlock1.xlsx,You are about to start a block of type 1 trials.,50,50,0,Go,Go,0.22,0.2,0.05,space,green,vertical,space,0.9659128000494093,None,space,1,0.39948649995494634,None,,,,0,0,0,0,0,50,50,50,186.07549730001483,,,,,,,,,,,,,,,,186.0598284000298,186.07549730001483,186.77495360001922,186.77495360001922,187.27444230008405,187.2582229000982,187.25882270000875,187.27444230008405,187.50755880004726,187.69065250002313,187.69065250002313,188.0927374000894,space,1,0.39948649995494634,None,188.096649800078,188.60684220003895,189.6059355000034,189.5901364000747,,,,,,,,,,,,,,,,,011,002,2025-05-03_00h37.22.654,Cued GoNogo Task,2024.2.4,60.040299048035,2025-05-03 00h37.35.996371 +0200,
block/CondBlock1.xlsx,You are about to start a block of type 1 trials.,51,51,0,Go,Go,0.28,0.05,0.2,space,green,horizontal,space,0.9659128000494093,None,space,1,0.2903552999487147,None,,,,0,0,0,0,0,51,51,51,189.6059355000034,,,,,,,,,,,,,,,,189.59052249998786,189.6059355000034,190.30525289999787,190.30525289999787,190.80491020006593,190.78927110007498,190.7898550000973,190.80491020006593,191.08812680002302,191.2877249000594,191.2877249000594,191.58854970009997,space,1,0.2903552999487147,None,191.59218979999423,192.10387089999858,193.10297420003917,193.08686959999613,,,,,,,,,,,,,,,,,011,002,2025-05-03_00h37.22.654,Cued GoNogo Task,2024.2.4,60.040299048035,2025-05-03 00h37.35.996371 +0200,
block/CondBlock1.xlsx,You are about to start a block of type 1 trials.,52,52,0,Go,Go,0.23,0.2,0.05,space,green,vertical,space,0.9659128000494093,None,None,0,,,,,,0,0,0,0,0,52,52,52,193.10297420003917,,,,,,,,,,,,,,,,193.08708490000572,193.10297420003917,193.80247160000727,193.80247160000727,194.30202559998725,194.28638460009824,194.2871509999968,194.30202559998725,194.53513770003337,194.7183459000662,194.7183459000662,195.20210080000106,None,0,,,195.20540900004562,195.7175389000913,196.7167268000776,196.70077360002324,195.2177679000888,195.2177679000888,,,,,,,,,,,,,,,011,002,2025-05-03_00h37.22.654,Cued GoNogo Task,2024.2.4,60.040299048035,2025-05-03 00h37.35.996371 +0200,
block/CondBlock1.xlsx,You are about to start a block of type 1 trials.,53,53,0,Go,Go,0.22,0.05,0.2,space,green,horizontal,space,0.9659128000494093,None,space,1,0.2939319999422878,None,,,,0,0,0,0,0,53,53,53,196.7167268000776,,,,,,,,,,,,,,,,196.7010055000428,196.7167268000776,197.41625310003292,197.41625310003292,197.91559620003682,197.899893600028,197.9006116000237,197.91559620003682,198.14884550007991,198.3320229999954,198.3320229999954,198.6330106999958,space,1,0.2939319999422878,None,198.636968200095,199.14794659998734,200.14713060006034,200.13115000003017,,,,,,,,,,,,,,,,,011,002,2025-05-03_00h37.22.654,Cued GoNogo Task,2024.2.4,60.040299048035,2025-05-03 00h37.35.996371 +0200,
block/CondBlock1.xlsx,You are about to start a block of type 1 trials.,54,54,0,NoGo,NoGo,0.14,0.05,0.2,none,green,horizontal,space,0.9659128000494093,None,None,1,,,,,,0,0,0,0,0,54,54,54,200.14713060006034,,,,,,,,,,,,,,,,200.13135500007775,200.14713060006034,200.84659370000008,200.84659370000008,201.3460791000398,201.33000790001824,201.33045700006187,201.3460791000398,201.49608090007678,201.67928350006696,201.67928350006696,202.16312650009058,None,1,,,202.16601340007037,202.6784741000738,203.67756640003063,203.6618023000192,202.1787900000345,202.1787900000345,,,,,,,,,,,,,,,011,002,2025-05-03_00h37.22.654,Cued GoNogo Task,2024.2.4,60.040299048035,2025-05-03 00h37.35.996371 +0200,
block/CondBlock1.xlsx,You are about to start a block of type 1 trials.,55,55,0,Go,Go,0.15,0.2,0.05,space,blue,vertical,space,0.9659128000494093,None,space,1,0.37613640003837645,None,,,,0,0,0,0,0,55,55,55,203.67756640003063,,,,,,,,,,,,,,,,203.66209430003073,203.67756640003063,204.37717830005568,204.37717830005568,204.87668940005824,204.860843500006,204.86149340006523,204.87668940005824,205.02631600003224,205.22643770009745,205.22643770009745,205.61058440001216,space,1,0.37613640003837645,None,205.61418880010024,206.12573000008706,207.12481509998906,207.1089406000683,,,,,,,,,,,,,,,,,011,002,2025-05-03_00h37.22.654,Cued GoNogo Task,2024.2.4,60.040299048035,2025-05-03 00h37.35.996371 +0200,
block/CondBlock1.xlsx,You are about to start a block of type 1 trials.,56,56,0,Go,Go,0.47,0.2,0.05,space,blue,vertical,space,0.9659128000494093,None,space,1,0.30849989992566407,None,,,,0,0,0,0,0,56,56,56,207.12481509998906,,,,,,,,,,,,,,,,207.10916039999574,207.12481509998906,207.82426700007636,207.82426700007636,208.323943000054,208.30790560005698,208.30855270009488,208.323943000054,208.80682649998926,208.9899301000405,208.9899301000405,209.30759620002937,space,1,0.30849989992566407,None,209.31203340005595,209.82242570002563,210.82196850003675,210.80592539999634,,,,,,,,,,,,,,,,,011,002,2025-05-03_00h37.22.654,Cued GoNogo Task,2024.2.4,60.040299048035,2025-05-03 00h37.35.996371 +0200,
block/CondBlock1.xlsx,You are about to start a block of type 1 trials.,57,57,0,NoGo,NoGo,0.42,0.2,0.05,none,green,vertical,space,0.9659128000494093,None,None,1,,,,,,0,0,0,0,0,57,57,57,210.82196850003675,,,,,,,,,,,,,,,,210.80621310009155,210.82196850003675,211.52131590002682,211.52131590002682,212.02073350001592,212.00491020001937,212.00561130000278,212.02073350001592,212.45402090006974,212.63691090000793,212.63691090000793,213.1207546000369,None,1,,,213.12355280003976,213.63601830007974,214.63525340007618,214.61962820007466,213.1363721000962,213.1363721000962,,,,,,,,,,,,,,,011,002,2025-05-03_00h37.22.654,Cued GoNogo Task,2024.2.4,60.040299048035,2025-05-03 00h37.35.996371 +0200,
block/CondBlock1.xlsx,You are about to start a block of type 1 trials.,58,58,0,Go,Go,0.22,0.05,0.2,space,green,horizontal,space,0.9659128000494093,None,space,1,0.35950119991321117,None,,,,0,0,0,0,0,58,58,58,214.63525340007618,,,,,,,,,,,,,,,,214.61992930003908,214.63525340007618,215.33472660009284,215.33472660009284,215.83428900002036,215.8184422000777,215.8190603000112,215.83428900002036,216.06743260007352,216.25078390003182,216.25078390003182,216.61812550004106,space,1,0.35950119991321117,None,216.62189990002662,217.13330290000886,218.13246630004141,218.11632900009863,,,,,,,,,,,,,,,,,011,002,2025-05-03_00h37.22.654,Cued GoNogo Task,2024.2.4,60.040299048035,2025-05-03 00h37.35.996371 +0200,
block/CondBlock1.xlsx,You are about to start a block of type 1 trials.,59,59,0,Go,Go,0.3,0.2,0.05,space,blue,vertical,space,0.9659128000494093,None,space,1,0.35568769997917116,None,,,,0,0,0,0,0,59,59,59,218.13246630004141,,,,,,,,,,,,,,,,218.11651730001904,218.13246630004141,218.83195220003836,218.83195220003836,219.33131130004767,219.31580840004608,219.31664630002342,219.33131130004767,219.63120360008907,219.83105790009722,219.83105790009722,220.19906710006762,space,1,0.35568769997917116,None,220.20386880007572,220.71367110009305,221.7128275000723,221.69743669999298,,,,,,,,,,,,,,,,,011,002,2025-05-03_00h37.22.654,Cued GoNogo Task,2024.2.4,60.040299048035,2025-05-03 00h37.35.996371 +0200,
block/CondBlock1.xlsx,You are about to start a block of type 1 trials.,60,60,0,NoGo,NoGo,0.24,0.2,0.05,none,blue,vertical,space,0.9659128000494093,None,None,1,,,,,,0,0,0,0,0,60,60,60,221.7128275000723,,,,,,,,,,,,,,,,221.69787170004565,221.7128275000723,222.412200700026,222.412200700026,222.91190850001294,222.8961408000905,222.89691370003857,222.91190850001294,223.16171180002857,223.34474460000638,223.34474460000638,223.82827830000315,None,1,,,223.83042880007997,224.3274262000341,225.34304509998765,225.32692570006475,223.84425830002874,223.84425830002874,,,,,,,,,,,,,,,011,002,2025-05-03_00h37.22.654,Cued GoNogo Task,2024.2.4,60.040299048035,2025-05-03 00h37.35.996371 +0200,
block/CondBlock1.xlsx,You are about to start a block of type 1 trials.,61,61,0,NoGo,NoGo,0.1,0.2,0.05,none,green,vertical,space,0.9659128000494093,None,space,0,0.2650483000325039,None,,,,0,0,0,0,0,61,61,61,225.34304509998765,,,,,,,,,,,,,,,,225.32714940002188,225.34304509998765,226.04266860010102,226.04266860010102,226.54205200006254,226.52613670006394,226.52668180002365,226.54205200006254,226.64216270006727,226.84205159998965,226.84205159998965,227.10962790006306,space,0,0.2650483000325039,None,227.11394020006992,227.624535900075,228.6239682000596,228.60777770006098,,,,,,,,,,,,,,,,,011,002,2025-05-03_00h37.22.654,Cued GoNogo Task,2024.2.4,60.040299048035,2025-05-03 00h37.35.996371 +0200,
block/CondBlock1.xlsx,You are about to start a block of type 1 trials.,62,62,0,Go,Go,0.45,0.05,0.2,space,blue,horizontal,space,0.9659128000494093,None,space,1,0.31370349996723235,None,,,,0,0,0,0,0,62,62,62,228.6239682000596,,,,,,,,,,,,,,,,228.60800620005466,228.6239682000596,229.32316220004577,229.32316220004577,229.82293200003915,229.8069792999886,229.80768480000552,229.82293200003915,230.2726792000467,230.4721859000856,230.4721859000856,230.7901670000283,space,1,0.31370349996723235,None,230.79416879999917,231.30493760004174,232.3040697000688,232.28812070004642,,,,,,,,,,,,,,,,,011,002,2025-05-03_00h37.22.654,Cued GoNogo Task,2024.2.4,60.040299048035,2025-05-03 00h37.35.996371 +0200,
block/CondBlock1.xlsx,You are about to start a block of type 1 trials.,63,63,0,Go,Go,0.1,0.05,0.2,space,green,horizontal,space,0.9659128000494093,None,space,1,0.3113746999297291,None,,,,0,0,0,0,0,63,63,63,232.3040697000688,,,,,,,,,,,,,,,,232.28840850002598,232.3040697000688,233.00361530005466,233.00361530005466,233.50317390006967,233.48715460009407,233.48781459999736,233.50317390006967,233.6030580000952,233.80281040002592,233.80281040002592,234.12022939999588,space,1,0.3113746999297291,None,234.12357180006802,234.63552530005109,235.63515099999495,235.6189670000458,,,,,,,,,,,,,,,,,011,002,2025-05-03_00h37.22.654,Cued GoNogo Task,2024.2.4,60.040299048035,2025-05-03 00h37.35.996371 +0200,
block/CondBlock1.xlsx,You are about to start a block of type 1 trials.,64,64,0,Go,Go,0.19,0.05,0.2,space,blue,horizontal,space,0.9659128000494093,None,space,1,0.27394149999599904,None,,,,0,0,0,0,0,64,64,64,235.63515099999495,,,,,,,,,,,,,,,,235.61924160004128,235.63515099999495,236.3340423000045,236.35098910005763,236.83386620006058,236.81791270000394,236.81860040000174,236.83386620006058,237.03350440005306,237.21675020002294,237.21675020002294,237.50109320005868,space,1,0.27394149999599904,None,237.50505899998825,238.01599780004472,239.01545690000057,238.99946180009283,,,,,,,,,,,,,,,,,011,002,2025-05-03_00h37.22.654,Cued GoNogo Task,2024.2.4,60.040299048035,2025-05-03 00h37.35.996371 +0200,
block/CondBlock1.xlsx,You are about to start a block of type 1 trials.,65,65,0,Go,Go,0.21,0.2,0.05,space,blue,vertical,space,0.9659128000494093,None,space,1,0.37228450004477054,None,,,,0,0,0,0,0,65,65,65,239.01545690000057,,,,,,,,,,,,,,,,238.9996919000987,239.01545690000057,239.71462109999266,239.71462109999266,240.21440759999678,240.19802660006098,240.19843810005113,240.21440759999678,240.43056830007117,240.6140192000894,240.6140192000894,240.99802120006643,space,1,0.37228450004477054,None,241.00172170007136,241.51313860004302,242.5122838000534,242.49665630003437,,,,,,,,,,,,,,,,,011,002,2025-05-03_00h37.22.654,Cued GoNogo Task,2024.2.4,60.040299048035,2025-05-03 00h37.35.996371 +0200,
block/CondBlock1.xlsx,You are about to start a block of type 1 trials.,66,66,0,Go,Go,0.18,0.05,0.2,space,blue,horizontal,space,0.9659128000494093,None,space,1,0.3252736999420449,None,,,,0,0,0,0,0,66,66,66,242.5122838000534,,,,,,,,,,,,,,,,242.49693240004126,242.5122838000534,243.21190300001763,243.21190300001763,243.71140940010082,243.6952556000324,243.69571370002814,243.71140940010082,243.89453450008295,244.07765900006052,244.07765900006052,244.4118851000676,space,1,0.3252736999420449,None,244.41524520004168,244.9269016000908,245.92622560006566,245.9101661000168,,,,,,,,,,,,,,,,,011,002,2025-05-03_00h37.22.654,Cued GoNogo Task,2024.2.4,60.040299048035,2025-05-03 00h37.35.996371 +0200,
block/CondBlock1.xlsx,You are about to start a block of type 1 trials.,67,67,0,Go,Go,0.29,0.2,0.05,space,green,vertical,space,0.9659128000494093,None,space,1,0.2816633000038564,None,,,,0,0,0,0,0,67,67,67,245.92622560006566,,,,,,,,,,,,,,,,245.9104076999938,245.92622560006566,246.62568250007462,246.62568250007462,247.12535360001493,247.10916450002696,247.1098350000102,247.12535360001493,247.42560980003327,247.60814470006153,247.60814470006153,247.8925719000399,space,1,0.2816633000038564,None,247.8963778000325,248.40764830005355,249.40684539999347,249.3911136999959,,,,,,,,,,,,,,,,,011,002,2025-05-03_00h37.22.654,Cued GoNogo Task,2024.2.4,60.040299048035,2025-05-03 00h37.35.996371 +0200,
block/CondBlock1.xlsx,You are about to start a block of type 1 trials.,68,68,0,NoGo,NoGo,0.24,0.2,0.05,none,blue,vertical,space,0.9659128000494093,None,None,1,,,,,,0,0,0,0,0,68,68,68,249.40684539999347,,,,,,,,,,,,,,,,249.39150670007803,249.40684539999347,250.10607229999732,250.10607229999732,250.60582310007885,250.58981500007212,250.5904950000113,250.60582310007885,250.855520500103,251.03881290007848,251.03881290007848,251.52211470005568,None,1,,,251.52422630006913,252.03790590004064,253.0369653000962,253.02084280003328,251.53807930008043,251.53807930008043,,,,,,,,,,,,,,,011,002,2025-05-03_00h37.22.654,Cued GoNogo Task,2024.2.4,60.040299048035,2025-05-03 00h37.35.996371 +0200,
block/CondBlock1.xlsx,You are about to start a block of type 1 trials.,69,69,0,Go,Go,0.27,0.05,0.2,space,green,horizontal,space,0.9659128000494093,None,space,1,0.36408339999616146,None,,,,0,0,0,0,0,69,69,69,253.0369653000962,,,,,,,,,,,,,,,,253.02105060010217,253.0369653000962,253.73648600000888,253.73648600000888,254.23609930009115,254.22037200001068,254.22112470003776,254.23609930009115,254.51901090005413,254.70238540007267,254.70238540007267,255.06992510007694,space,1,0.36408339999616146,None,255.07351180003025,255.5849691000767,256.5841582000721,256.5687866000226,,,,,,,,,,,,,,,,,011,002,2025-05-03_00h37.22.654,Cued GoNogo Task,2024.2.4,60.040299048035,2025-05-03 00h37.35.996371 +0200,
block/CondBlock1.xlsx,You are about to start a block of type 1 trials.,70,70,0,Go,Go,0.25,0.2,0.05,space,green,vertical,space,0.9659128000494093,None,space,1,0.3451068999711424,None,,,,0,0,0,0,0,70,70,70,256.5841582000721,,,,,,,,,,,,,,,,256.5691084000282,256.5841582000721,257.2834728000453,257.2834728000453,257.7831525000511,257.767212600098,257.7677587000653,257.7831525000511,258.0330098000122,258.2326977000339,258.2326977000339,258.5839886000613,space,1,0.3451068999711424,None,258.5884034000337,259.0986727999989,260.09776919998694,260.0821292999899,,,,,,,,,,,,,,,,,011,002,2025-05-03_00h37.22.654,Cued GoNogo Task,2024.2.4,60.040299048035,2025-05-03 00h37.35.996371 +0200,
block/CondBlock1.xlsx,You are about to start a block of type 1 trials.,71,71,0,Go,Go,0.28,0.05,0.2,space,green,horizontal,space,0.9659128000494093,None,space,1,0.31156830000691116,None,,,,0,0,0,0,0,71,71,71,260.09776919998694,,,,,,,,,,,,,,,,260.0825037000468,260.09776919998694,260.7973583000712,260.7973583000712,261.29698850004934,261.28090470004827,261.2814749000827,261.29698850004934,261.5799901999999,261.76314679998904,261.76314679998904,262.08092460001353,space,1,0.31156830000691116,None,262.08534079999663,262.5958227000665,263.59505280002486,263.57932930008974,,,,,,,,,,,,,,,,,011,002,2025-05-03_00h37.22.654,Cued GoNogo Task,2024.2.4,60.040299048035,2025-05-03 00h37.35.996371 +0200,
block/CondBlock1.xlsx,You are about to start a block of type 1 trials.,72,72,0,Go,Go,0.14,0.05,0.2,space,blue,horizontal,space,0.9659128000494093,None,space,1,0.31523940002080053,None,,,,0,0,0,0,0,72,72,72,263.59505280002486,,,,,,,,,,,,,,,,263.57960220007226,263.59505280002486,264.2943731000414,264.2943731000414,264.7941207000986,264.7780400000047,264.77862019999884,264.7941207000986,264.94392200000584,265.1271277000196,265.1271277000196,265.4448740000371,space,1,0.31523940002080053,None,265.4484703000635,265.95972340006847,266.95905800000764,266.94312150008045,,,,,,,,,,,,,,,,,011,002,2025-05-03_00h37.22.654,Cued GoNogo Task,2024.2.4,60.040299048035,2025-05-03 00h37.35.996371 +0200,
block/CondBlock1.xlsx,You are about to start a block of type 1 trials.,73,73,0,Go,Go,0.11,0.05,0.2,space,blue,horizontal,space,0.9659128000494093,None,space,1,0.34495800000149757,None,,,,0,0,0,0,0,73,73,73,266.95905800000764,,,,,,,,,,,,,,,,266.9434500000207,266.95905800000764,267.65837580000516,267.65837580000516,268.15787810005713,268.1426260001026,268.1435486000264,268.15787810005713,268.2743920000503,268.45752659998834,268.45752659998834,268.8084354000166,space,1,0.34495800000149757,None,268.81258060003165,269.3236250000773,270.3228776000906,270.3068657000549,,,,,,,,,,,,,,,,,011,002,2025-05-03_00h37.22.654,Cued GoNogo Task,2024.2.4,60.040299048035,2025-05-03 00h37.35.996371 +0200,
block/CondBlock1.xlsx,You are about to start a block of type 1 trials.,74,74,0,Go,Go,0.22,0.2,0.05,space,blue,vertical,space,0.9659128000494093,None,space,1,0.3361590999411419,None,,,,0,0,0,0,0,74,74,74,270.3228776000906,,,,,,,,,,,,,,,,270.30714450008236,270.3228776000906,271.0220865000738,271.0220865000738,271.52182530006394,271.506256600027,271.5068839000305,271.52182530006394,271.7550290999934,271.93797920004,271.93797920004,272.28885750006884,space,1,0.3361590999411419,None,272.29253350000363,272.803934100084,273.803117100033,273.78758010000456,,,,,,,,,,,,,,,,,011,002,2025-05-03_00h37.22.654,Cued GoNogo Task,2024.2.4,60.040299048035,2025-05-03 00h37.35.996371 +0200,
block/CondBlock1.xlsx,You are about to start a block of type 1 trials.,75,75,0,Go,Go,0.26,0.05,0.2,space,blue,horizontal,space,0.9659128000494093,None,space,1,0.3586015000473708,None,,,,0,0,0,0,0,75,75,75,273.803117100033,,,,,,,,,,,,,,,,273.78792060003616,273.803117100033,274.5025625000708,274.5025625000708,275.00235230010003,274.98674560000654,274.9873379000928,275.00235230010003,275.2686456000665,275.4519198000198,275.4519198000198,275.81939240009524,space,1,0.3586015000473708,None,275.82320490002166,276.3344496000791,277.3337132000597,277.31821340008173,,,,,,,,,,,,,,,,,011,002,2025-05-03_00h37.22.654,Cued GoNogo Task,2024.2.4,60.040299048035,2025-05-03 00h37.35.996371 +0200,
block/CondBlock1.xlsx,You are about to start a block of type 1 trials.,76,76,0,Go,Go,0.14,0.2,0.05,space,green,vertical,space,0.9659128000494093,None,space,1,0.31235430005472153,None,,,,0,0,0,0,0,76,76,76,277.3337132000597,,,,,,,,,,,,,,,,277.31850440008566,277.3337132000597,278.03326280007605,278.03326280007605,278.5327574000694,278.51661970000714,278.51717540004756,278.5327574000694,278.68277090007905,278.8658525000792,278.8658525000792,279.18312639999203,space,1,0.31235430005472153,None,279.1880519000115,279.69842300005257,280.6974713000236,280.68158330000006,,,,,,,,,,,,,,,,,011,002,2025-05-03_00h37.22.654,Cued GoNogo Task,2024.2.4,60.040299048035,2025-05-03 00h37.35.996371 +0200,
block/CondBlock1.xlsx,You are about to start a block of type 1 trials.,77,77,0,Go,Go,0.18,0.05,0.2,space,green,horizontal,space,0.9659128000494093,None,space,1,0.35508980008307844,None,,,,0,0,0,0,0,77,77,77,280.6974713000236,,,,,,,,,,,,,,,,280.68179860000964,280.6974713000236,281.39708870009053,281.39708870009053,281.896538500092,281.88112370006274,281.881965000066,281.896538500092,282.07996180001646,282.2630233000964,282.2630233000964,282.6302496000426,space,1,0.35508980008307844,None,282.6346911001019,283.14559810003266,284.1447085000109,284.1291026000399,,,,,,,,,,,,,,,,,011,002,2025-05-03_00h37.22.654,Cued GoNogo Task,2024.2.4,60.040299048035,2025-05-03 00h37.35.996371 +0200,
block/CondBlock1.xlsx,You are about to start a block of type 1 trials.,78,78,0,NoGo,NoGo,0.27,0.05,0.2,none,blue,horizontal,space,0.9659128000494093,None,None,1,,,,,,0,0,0,0,0,78,78,78,284.1447085000109,,,,,,,,,,,,,,,,284.12942930008285,284.1447085000109,284.84438870009035,284.84438870009035,285.3436540000839,285.32755150005687,285.3279591000173,285.3436540000839,285.62703450000845,285.8100548000075,285.8100548000075,286.2937452000333,None,1,,,286.2961596000241,286.80923760007136,287.8084639000008,287.79246130003594,286.3096206000773,286.3096206000773,,,,,,,,,,,,,,,011,002,2025-05-03_00h37.22.654,Cued GoNogo Task,2024.2.4,60.040299048035,2025-05-03 00h37.35.996371 +0200,
block/CondBlock1.xlsx,You are about to start a block of type 1 trials.,79,79,0,NoGo,NoGo,0.26,0.2,0.05,none,blue,vertical,space,0.9659128000494093,None,space,0,0.2735461000120267,None,,,,0,0,0,0,0,79,79,79,287.8084639000008,,,,,,,,,,,,,,,,287.79274820000865,287.8084639000008,288.5077655999921,288.5077655999921,289.0075276000425,288.99164980009664,288.99239020003006,289.0075276000425,289.2738073000219,289.4571361000417,289.4571361000417,289.741608500015,space,0,0.2735461000120267,None,289.7458104999969,290.2565134000033,291.25571330008097,291.2396857000422,,,,,,,,,,,,,,,,,011,002,2025-05-03_00h37.22.654,Cued GoNogo Task,2024.2.4,60.040299048035,2025-05-03 00h37.35.996371 +0200,
block/CondBlock1.xlsx,You are about to start a block of type 1 trials.,80,80,0,Go,Go,0.22,0.2,0.05,space,green,vertical,space,0.9659128000494093,None,space,1,0.3639340999070555,None,,,,0,0,0,0,0,80,80,80,291.25571330008097,,,,,,,,,,,,,,,,291.24003190000076,291.25571330008097,291.9550980000058,291.9550980000058,292.4545876000775,292.4386594000971,292.4393546000356,292.4545876000775,292.68768309999723,292.87092160002794,292.87092160002794,293.23810539999977,space,1,0.3639340999070555,None,293.24135320005007,293.7534631000599,294.75256230006926,294.7368777000811,,,,,,,,,,,,,,,,,011,002,2025-05-03_00h37.22.654,Cued GoNogo Task,2024.2.4,60.040299048035,2025-05-03 00h37.35.996371 +0200,
block/CondBlock1.xlsx,You are about to start a block of type 1 trials.,81,81,0,Go,Go,0.5,0.2,0.05,space,green,vertical,space,0.9659128000494093,None,space,1,0.4065535000991076,None,,,,0,0,0,0,0,81,81,81,294.75256230006926,,,,,,,,,,,,,,,,294.7371252999874,294.75256230006926,295.45205040008295,295.45205040008295,295.95188350009266,295.93604510009754,295.93676589999814,295.95188350009266,296.4513546000235,296.6510990000097,296.6510990000097,297.06861050007865,space,1,0.4065535000991076,None,297.07353789999615,297.58377390005626,298.5829720000038,298.5669881000649,,,,,,,,,,,,,,,,,011,002,2025-05-03_00h37.22.654,Cued GoNogo Task,2024.2.4,60.040299048035,2025-05-03 00h37.35.996371 +0200,
block/CondBlock1.xlsx,You are about to start a block of type 1 trials.,82,82,0,Go,Go,0.43,0.05,0.2,space,green,horizontal,space,0.9659128000494093,None,space,1,0.37282400007825345,None,,,,0,0,0,0,0,82,82,82,298.5829720000038,,,,,,,,,,,,,,,,298.5672352000838,298.5829720000038,299.2823387000244,299.2823387000244,299.78198570001405,299.765914699994,299.76639600005,299.78198570001405,300.21513890009373,300.39813310001045,300.39813310001045,300.7826882000081,space,1,0.37282400007825345,None,300.78764039999805,301.29753850004636,302.29657030000817,302.28072440007236,,,,,,,,,,,,,,,,,011,002,2025-05-03_00h37.22.654,Cued GoNogo Task,2024.2.4,60.040299048035,2025-05-03 00h37.35.996371 +0200,
block/CondBlock1.xlsx,You are about to start a block of type 1 trials.,83,83,0,Go,Go,0.25,0.2,0.05,space,green,vertical,space,0.9659128000494093,None,space,1,0.3373113999841735,None,,,,0,0,0,0,0,83,83,83,302.29657030000817,,,,,,,,,,,,,,,,302.28104580007493,302.29657030000817,302.995936900028,302.995936900028,303.4957978000166,303.4798062000191,303.48046680004336,303.4957978000166,303.7452972000465,303.9451715000905,303.9451715000905,304.2963033000706,space,1,0.3373113999841735,None,304.3003310000058,304.8110992000438,305.81025179999415,305.79491040005814,,,,,,,,,,,,,,,,,011,002,2025-05-03_00h37.22.654,Cued GoNogo Task,2024.2.4,60.040299048035,2025-05-03 00h37.35.996371 +0200,
block/CondBlock1.xlsx,You are about to start a block of type 1 trials.,84,84,0,NoGo,NoGo,0.14,0.2,0.05,none,green,vertical,space,0.9659128000494093,None,None,1,,,,,,0,0,0,0,0,84,84,84,305.81025179999415,,,,,,,,,,,,,,,,305.7953353000339,305.81025179999415,306.5095582000213,306.5095582000213,307.0094036000082,306.9932851000922,306.99388020008337,307.0094036000082,307.15902840008494,307.3421787000261,307.3421787000261,307.8259605000494,None,1,,,307.8286632000236,308.3415488000028,309.3406546000624,309.32457150006667,307.842344100005,307.842344100005,,,,,,,,,,,,,,,011,002,2025-05-03_00h37.22.654,Cued GoNogo Task,2024.2.4,60.040299048035,2025-05-03 00h37.35.996371 +0200,
block/CondBlock1.xlsx,You are about to start a block of type 1 trials.,85,85,0,Go,Go,0.2,0.05,0.2,space,blue,horizontal,space,0.9659128000494093,None,space,1,0.2785944000352174,None,,,,0,0,0,0,0,85,85,85,309.3406546000624,,,,,,,,,,,,,,,,309.32479139999487,309.3406546000624,310.0402783000609,310.0402783000609,310.5397096000379,310.5240967000136,310.52495009999257,310.5397096000379,310.73968940007035,310.9394177000504,310.9394177000504,311.2236288000131,space,1,0.2785944000352174,None,311.2269371000584,311.73876990005374,312.73791250004433,312.72223240009043,,,,,,,,,,,,,,,,,011,002,2025-05-03_00h37.22.654,Cued GoNogo Task,2024.2.4,60.040299048035,2025-05-03 00h37.35.996371 +0200,
block/CondBlock1.xlsx,You are about to start a block of type 1 trials.,86,86,0,Go,Go,0.16,0.2,0.05,space,blue,vertical,space,0.9659128000494093,None,space,1,0.26705899997614324,None,,,,0,0,0,0,0,86,86,86,312.73791250004433,,,,,,,,,,,,,,,,312.722509299987,312.73791250004433,313.4371719000628,313.4371719000628,313.9371437000809,313.9209759000223,313.9215394000057,313.9371437000809,314.1033381000161,314.28680080000777,314.28680080000777,314.5705989000853,space,1,0.26705899997614324,None,314.5738377000671,315.0860325000249,316.08518060005736,316.0691795999883,,,,,,,,,,,,,,,,,011,002,2025-05-03_00h37.22.654,Cued GoNogo Task,2024.2.4,60.040299048035,2025-05-03 00h37.35.996371 +0200,
block/CondBlock1.xlsx,You are about to start a block of type 1 trials.,87,87,0,Go,Go,0.41,0.2,0.05,space,green,vertical,space,0.9659128000494093,None,space,1,0.33437050005886704,None,,,,0,0,0,0,0,87,87,87,316.08518060005736,,,,,,,,,,,,,,,,316.069427200011,316.08518060005736,316.78441560000647,316.78441560000647,317.28421260009054,317.2684314000653,317.26907530007884,317.28421260009054,317.70062020001933,317.88376550003886,317.88376550003886,318.2344309000764,space,1,0.33437050005886704,None,318.2372857000446,318.7496758000925,319.7488411000231,319.73277000000235,,,,,,,,,,,,,,,,,011,002,2025-05-03_00h37.22.654,Cued GoNogo Task,2024.2.4,60.040299048035,2025-05-03 00h37.35.996371 +0200,
block/CondBlock1.xlsx,You are about to start a block of type 1 trials.,88,88,0,NoGo,NoGo,0.15,0.2,0.05,none,green,vertical,space,0.9659128000494093,None,None,1,,,,,,0,0,0,0,0,88,88,88,319.7488411000231,,,,,,,,,,,,,,,,319.7329972999869,319.7488411000231,320.4481261000037,320.4481261000037,320.94771780003794,320.93144100008067,320.9318726999918,320.94771780003794,321.09744630008936,321.2975053000264,321.2975053000264,321.7811418999918,None,1,,,321.78326070006005,322.296758600045,323.29568400001153,323.2800236000912,321.7970668000635,321.7970668000635,,,,,,,,,,,,,,,011,002,2025-05-03_00h37.22.654,Cued GoNogo Task,2024.2.4,60.040299048035,2025-05-03 00h37.35.996371 +0200,
block/CondBlock1.xlsx,You are about to start a block of type 1 trials.,89,89,0,Go,Go,0.24,0.05,0.2,space,blue,horizontal,space,0.9659128000494093,None,space,1,0.3222700000042096,None,,,,0,0,0,0,0,89,89,89,323.29568400001153,,,,,,,,,,,,,,,,323.28025920002256,323.29568400001153,323.99549030000344,323.99549030000344,324.4948821000289,324.47921490005683,324.4797788000433,324.4948821000289,324.7446995000355,324.92774850002024,324.92774850002024,325.26258790004067,space,1,0.3222700000042096,None,325.26716769998893,325.77721319999546,326.7765548999887,326.7602976000635,,,,,,,,,,,,,,,,,011,002,2025-05-03_00h37.22.654,Cued GoNogo Task,2024.2.4,60.040299048035,2025-05-03 00h37.35.996371 +0200,
block/CondBlock1.xlsx,You are about to start a block of type 1 trials.,90,90,0,Go,Go,0.25,0.2,0.05,space,blue,vertical,space,0.9659128000494093,None,space,1,0.34488379990216345,None,,,,0,0,0,0,0,90,90,90,326.7765548999887,,,,,,,,,,,,,,,,326.76050309999846,326.7765548999887,327.47577200003434,327.47577200003434,327.9752821000293,327.95960080006626,327.96044759999495,327.9752821000293,328.22519840009045,328.4252147000516,328.4252147000516,328.775903700036,space,1,0.34488379990216345,None,328.7791758000385,329.29076040000655,330.2901817000238,330.2741811000742,,,,,,,,,,,,,,,,,011,002,2025-05-03_00h37.22.654,Cued GoNogo Task,2024.2.4,60.040299048035,2025-05-03 00h37.35.996371 +0200,
block/CondBlock1.xlsx,You are about to start a block of type 1 trials.,91,91,0,Go,Go,0.26,0.05,0.2,space,green,horizontal,space,0.9659128000494093,None,space,1,0.2878794999560341,None,,,,0,0,0,0,0,91,91,91,330.2901817000238,,,,,,,,,,,,,,,,330.2744406000711,330.2901817000238,330.98964260006323,330.98964260006323,331.4891071000602,331.4737279000692,331.474411000032,331.4891071000602,331.7557274000719,331.93888850009535,331.93888850009535,332.2397704999894,space,1,0.2878794999560341,None,332.24336690001655,332.75481680000667,333.75409370008856,333.7381159000797,,,,,,,,,,,,,,,,,011,002,2025-05-03_00h37.22.654,Cued GoNogo Task,2024.2.4,60.040299048035,2025-05-03 00h37.35.996371 +0200,
block/CondBlock1.xlsx,You are about to start a block of type 1 trials.,92,92,0,NoGo,NoGo,0.44,0.2,0.05,none,blue,vertical,space,0.9659128000494093,None,None,1,,,,,,0,0,0,0,0,92,92,92,333.75409370008856,,,,,,,,,,,,,,,,333.73839290009346,333.75409370008856,334.45343560003676,334.45343560003676,334.95313780009747,334.9370793000562,334.9377662000479,334.95313780009747,335.40256020007655,335.58605100004934,335.58605100004934,336.0696745000314,None,1,,,336.0724651000928,336.58495290006977,337.5842260000063,337.5685307000531,336.08519980008714,336.08519980008714,,,,,,,,,,,,,,,011,002,2025-05-03_00h37.22.654,Cued GoNogo Task,2024.2.4,60.040299048035,2025-05-03 00h37.35.996371 +0200,
block/CondBlock1.xlsx,You are about to start a block of type 1 trials.,93,93,0,Go,Go,0.13,0.2,0.05,space,green,vertical,space,0.9659128000494093,None,space,1,0.28670789999887347,None,,,,0,0,0,0,0,93,93,93,337.5842260000063,,,,,,,,,,,,,,,,337.5688623000169,337.5842260000063,338.2836145000765,338.2836145000765,338.7831338000251,338.76756509998813,338.768549600034,338.7831338000251,338.91628360003233,339.09961890010163,339.09961890010163,339.40103290008847,space,1,0.28670789999887347,None,339.405181500013,339.91572879999876,340.91474360006396,340.8988574000541,,,,,,,,,,,,,,,,,011,002,2025-05-03_00h37.22.654,Cued GoNogo Task,2024.2.4,60.040299048035,2025-05-03 00h37.35.996371 +0200,
block/CondBlock1.xlsx,You are about to start a block of type 1 trials.,94,94,0,Go,Go,0.44,0.05,0.2,space,blue,horizontal,space,0.9659128000494093,None,space,1,0.37516410008538514,None,,,,0,0,0,0,0,94,94,94,340.91474360006396,,,,,,,,,,,,,,,,340.8992219000356,340.91474360006396,341.61424830008764,341.61424830008764,342.11358250002377,342.0976126000751,342.09816530009266,342.11358250002377,342.56358499999624,342.74658630008344,342.74658630008344,343.1310846999986,space,1,0.37516410008538514,None,343.1346691000508,343.64605630002916,344.6450523000676,344.6289614000125,,,,,,,,,,,,,,,,,011,002,2025-05-03_00h37.22.654,Cued GoNogo Task,2024.2.4,60.040299048035,2025-05-03 00h37.35.996371 +0200,
block/CondBlock1.xlsx,You are about to start a block of type 1 trials.,95,95,0,Go,Go,0.15,0.2,0.05,space,green,vertical,space,0.9659128000494093,None,space,1,0.35281049995683134,None,,,,0,0,0,0,0,95,95,95,344.6450523000676,,,,,,,,,,,,,,,,344.6292189999949,344.6450523000676,345.3444692000048,345.3444692000048,345.8439650000073,345.82828890008386,345.8290507000638,345.8439650000073,345.9941173000261,346.19382939999923,346.19382939999923,346.5613980999915,space,1,0.35281049995683134,None,346.56500390009023,347.0764593000058,348.0755779000465,348.0595076000318,,,,,,,,,,,,,,,,,011,002,2025-05-03_00h37.22.654,Cued GoNogo Task,2024.2.4,60.040299048035,2025-05-03 00h37.35.996371 +0200,
block/CondBlock1.xlsx,You are about to start a block of type 1 trials.,96,96,0,Go,Go,0.49,0.2,0.05,space,green,vertical,space,0.9659128000494093,None,space,1,0.3331010000547394,None,,,,0,0,0,0,0,96,96,96,348.0755779000465,,,,,,,,,,,,,,,,348.05973720003385,348.0755779000465,348.77495920006186,348.77495920006186,349.2746049000416,349.25862610002514,349.25919500004966,349.2746049000416,349.7740036000032,349.95743860001676,349.95743860001676,350.2925198000157,space,1,0.3331010000547394,None,350.2955568000907,350.80667780002113,351.80587130005006,351.7898254999891,,,,,,,,,,,,,,,,,011,002,2025-05-03_00h37.22.654,Cued GoNogo Task,2024.2.4,60.040299048035,2025-05-03 00h37.35.996371 +0200,
block/CondBlock1.xlsx,You are about to start a block of type 1 trials.,97,97,0,Go,Go,0.11,0.2,0.05,space,blue,vertical,space,0.9659128000494093,None,space,1,0.3853433000622317,None,,,,0,0,0,0,0,97,97,97,351.80587130005006,,,,,,,,,,,,,,,,351.7900439000223,351.80587130005006,352.50523370003793,352.50523370003793,353.0047588000307,352.9893585999962,352.99018670001533,353.0047588000307,353.1213756999932,353.30457610008307,353.30457610008307,353.7053438000148,space,1,0.3853433000622317,None,353.70950950006954,354.22037049999926,355.2195311000105,355.2035499000922,,,,,,,,,,,,,,,,,011,002,2025-05-03_00h37.22.654,Cued GoNogo Task,2024.2.4,60.040299048035,2025-05-03 00h37.35.996371 +0200,
block/CondBlock1.xlsx,You are about to start a block of type 1 trials.,98,98,0,Go,Go,0.26,0.05,0.2,space,green,horizontal,space,0.9659128000494093,None,space,1,0.34238450007978827,None,,,,0,0,0,0,0,98,98,98,355.2195311000105,,,,,,,,,,,,,,,,355.20377500006,355.2195311000105,355.91910679999273,355.91910679999273,356.4187504000729,356.4026674000779,356.4033246000763,356.4187504000729,356.6852178000845,356.8684780000476,356.8684780000476,357.21925930003636,space,1,0.34238450007978827,None,357.2233298000647,357.7343051000498,358.73348510009237,358.7177635000553,,,,,,,,,,,,,,,,,011,002,2025-05-03_00h37.22.654,Cued GoNogo Task,2024.2.4,60.040299048035,2025-05-03 00h37.35.996371 +0200,
block/CondBlock1.xlsx,You are about to start a block of type 1 trials.,99,99,0,Go,Go,0.28,0.05,0.2,space,green,horizontal,space,0.9659128000494093,None,space,1,0.402980100014247,None,,,,0,0,0,0,0,99,99,99,358.73348510009237,,,,,,,,,,,,,,,,358.71813460008707,358.73348510009237,359.4328251000261,359.4328251000261,359.93251529999543,359.91660200001206,359.9172660000622,359.93251529999543,360.21550960000604,360.39877730002627,360.39877730002627,360.81675850006286,space,1,0.402980100014247,None,360.82293070002925,361.3313624000875,362.33277800004,362.3147564000683,,,,,,,,,,,,,,,,,011,002,2025-05-03_00h37.22.654,Cued GoNogo Task,2024.2.4,60.040299048035,2025-05-03 00h37.35.996371 +0200,
block/CondBlock1.xlsx,You are about to start a block of type 1 trials.,0,0,0,,,,,,,,,space,0.9659128000494093,None,,,,,space,1.005628600018099,None,0,0,0,0,,,,,,,,,,,,,,,,,,,,,,,,,,,,,,,,,,,,,,,,,,,362.3303819000721,362.33277800004,362.33277800004,363.34752810001373,space,1.005628600018099,None,,,,,,,,011,002,2025-05-03_00h37.22.654,Cued GoNogo Task,2024.2.4,60.040299048035,2025-05-03 00h37.35.996371 +0200,
block/CondBlock2.xlsx,You are about to start a block of type 2 trials.,0,0,0,Go,Go,0.18,0.05,0.2,space,green,horizontal,space,253.56738909997512,None,space,1,0.27523800008930266,None,,,,0,1,1,1,0,0,0,0,616.9582202000311,,,,,,,,,363.35230990010314,363.3628050000407,363.3628050000407,616.9390625000233,space,253.56738909997512,None,616.9561258000322,616.9582202000311,617.6539868999971,617.6705933000194,618.1533805000363,618.1378836000804,618.1390006000875,618.1533805000363,618.3367289000889,618.5198043000419,618.5198043000419,618.8047744000796,space,1,0.27523800008930266,None,618.8110705000581,619.3189732000465,620.3183622000506,620.3030476000858,,,,,,,,,,,,,,,,,011,002,2025-05-03_00h37.22.654,Cued GoNogo Task,2024.2.4,60.040299048035,2025-05-03 00h37.35.996371 +0200,
block/CondBlock2.xlsx,You are about to start a block of type 2 trials.,1,1,0,Go,Go,0.2,0.2,0.05,space,green,vertical,space,253.56738909997512,None,space,1,0.34179840004071593,None,,,,0,1,1,1,0,1,1,1,620.3183622000506,,,,,,,,,,,,,,,,620.3034324999899,620.3183622000506,621.017676700023,621.017676700023,621.5172974000452,621.5016060000053,621.5022531000432,621.5172974000452,621.7171388000716,621.9168563000858,621.9168563000858,622.2677776000928,space,1,0.34179840004071593,None,622.2717894000234,622.7829424000811,623.7820391000714,623.7662653999869,,,,,,,,,,,,,,,,,011,002,2025-05-03_00h37.22.654,Cued GoNogo Task,2024.2.4,60.040299048035,2025-05-03 00h37.35.996371 +0200,
block/CondBlock2.xlsx,You are about to start a block of type 2 trials.,2,2,0,Go,Go,0.22,0.05,0.2,space,blue,horizontal,space,253.56738909997512,None,space,1,0.3814773999620229,None,,,,0,1,1,1,0,2,2,2,623.7820391000714,,,,,,,,,,,,,,,,623.7665918000275,623.7820391000714,624.4813357000239,624.4813357000239,624.9812813000754,624.9650203000056,624.9656063000439,624.9812813000754,625.2143406000687,625.397369400016,625.397369400016,625.7829892000882,space,1,0.3814773999620229,None,625.7874294000212,626.2967952000909,627.2961604000302,627.2799580000574,,,,,,,,,,,,,,,,,011,002,2025-05-03_00h37.22.654,Cued GoNogo Task,2024.2.4,60.040299048035,2025-05-03 00h37.35.996371 +0200,
block/CondBlock2.xlsx,You are about to start a block of type 2 trials.,3,3,0,Go,Go,0.14,0.05,0.2,space,green,horizontal,space,253.56738909997512,None,space,1,0.3175189000321552,None,,,,0,1,1,1,0,3,3,3,627.2961604000302,,,,,,,,,,,,,,,,627.2803260000655,627.2961604000302,627.9952788000228,627.9952788000228,628.4949299000436,628.4788248999976,628.4793460000074,628.4949299000436,628.644757000031,628.8281339000678,628.8281339000678,629.1620466000168,space,1,0.3175189000321552,None,629.1653116000816,629.6771933001,630.6763718000147,630.6603475000011,,,,,,,,,,,,,,,,,011,002,2025-05-03_00h37.22.654,Cued GoNogo Task,2024.2.4,60.040299048035,2025-05-03 00h37.35.996371 +0200,
block/CondBlock2.xlsx,You are about to start a block of type 2 trials.,4,4,0,Go,Go,0.26,0.05,0.2,space,blue,horizontal,space,253.56738909997512,None,space,1,0.4062514000106603,None,,,,0,1,1,1,0,4,4,4,630.6763718000147,,,,,,,,,,,,,,,,630.6606021000771,630.6763718000147,631.3758910000324,631.3758910000324,631.875334899989,631.8592810000991,631.8598918000935,631.875334899989,632.1419727000175,632.3250759000657,632.3250759000657,632.7429105000338,space,1,0.4062514000106603,None,632.7474958000239,633.2577309000771,634.2567713999888,634.2406718001002,,,,,,,,,,,,,,,,,011,002,2025-05-03_00h37.22.654,Cued GoNogo Task,2024.2.4,60.040299048035,2025-05-03 00h37.35.996371 +0200,
block/CondBlock2.xlsx,You are about to start a block of type 2 trials.,5,5,0,Go,Go,0.1,0.05,0.2,space,blue,horizontal,space,253.56738909997512,None,space,1,0.2958030999870971,None,,,,0,1,1,1,0,5,5,5,634.2567713999888,,,,,,,,,,,,,,,,634.24090850004,634.2567713999888,634.9563504999969,634.9563504999969,635.4560622000135,635.4402541000163,635.4409458000446,635.4560622000135,635.5556033999892,635.7557487000013,635.7557487000013,636.0566095000831,space,1,0.2958030999870971,None,636.0607962000649,636.5715335001005,637.5707497000694,637.5548328000586,,,,,,,,,,,,,,,,,011,002,2025-05-03_00h37.22.654,Cued GoNogo Task,2024.2.4,60.040299048035,2025-05-03 00h37.35.996371 +0200,
block/CondBlock2.xlsx,You are about to start a block of type 2 trials.,6,6,0,NoGo,NoGo,0.3,0.2,0.05,none,green,vertical,space,253.56738909997512,None,None,1,,,,,,0,1,1,1,0,6,6,6,637.5707497000694,,,,,,,,,,,,,,,,637.5552090000128,637.5707497000694,638.2700081000803,638.2700081000803,638.7696251000743,638.7541699000867,638.7549262000248,638.7696251000743,639.06958390004,639.2695205000928,639.2695205000928,639.7531344000017,None,1,,,639.7560199000873,640.2688691000221,,641.2677918000845,639.7689169000369,639.7689169000369,,,,,,,,,,,,,,,011,002,2025-05-03_00h37.22.654,Cued GoNogo Task,2024.2.4,60.040299048035,2025-05-03 00h37.35.996371 +0200,
block/CondBlock2.xlsx,You are about to start a block of type 2 trials.,7,7,0,NoGo,NoGo,0.14,0.05,0.2,none,blue,horizontal,space,253.56738909997512,None,space,0,0.24291230004746467,None,,,,0,1,1,1,0,7,7,7,641.2844560000813,,,,,,,,,,,,,,,,641.2680322000524,641.2844560000813,641.9672606000677,641.9840069999918,642.4666850999929,642.4509358000942,642.4515040999977,642.4666850999929,642.6165327000199,642.7997925000964,642.7997925000964,643.0506590000587,space,0,0.24291230004746467,None,643.0558553000446,643.5657569000032,644.5650361001026,644.5490342000267,,,,,,,,,,,,,,,,,011,002,2025-05-03_00h37.22.654,Cued GoNogo Task,2024.2.4,60.040299048035,2025-05-03 00h37.35.996371 +0200,
block/CondBlock2.xlsx,You are about to start a block of type 2 trials.,8,8,0,Go,Go,0.13,0.2,0.05,space,blue,vertical,space,253.56738909997512,None,space,1,0.36985290003940463,None,,,,0,1,1,1,0,8,8,8,644.5650361001026,,,,,,,,,,,,,,,,644.5493029000936,644.5650361001026,645.2643135000253,645.2643135000253,645.7638958999887,645.7479367000051,645.7485394000541,645.7638958999887,645.8970871000784,646.080188699998,646.080188699998,646.464220300084,space,1,0.36985290003940463,None,646.469863000093,646.9796109000454,647.9787027999992,647.9626786001027,,,,,,,,,,,,,,,,,011,002,2025-05-03_00h37.22.654,Cued GoNogo Task,2024.2.4,60.040299048035,2025-05-03 00h37.35.996371 +0200,
block/CondBlock2.xlsx,You are about to start a block of type 2 trials.,9,9,0,Go,Go,0.43,0.2,0.05,space,green,vertical,space,253.56738909997512,None,space,1,0.2718338000122458,None,,,,0,1,1,1,0,9,9,9,647.9787027999992,,,,,,,,,,,,,,,,647.9628838000353,647.9787027999992,648.6784140000818,648.6784140000818,649.1776970000938,649.1623155000852,649.1628651000792,649.1776970000938,649.6104965000413,649.7937498000683,649.7937498000683,650.0780363000231,space,1,0.2718338000122458,None,650.0820651000831,650.5934093000833,651.592425800045,651.5766312000342,,,,,,,,,,,,,,,,,011,002,2025-05-03_00h37.22.654,Cued GoNogo Task,2024.2.4,60.040299048035,2025-05-03 00h37.35.996371 +0200,
block/CondBlock2.xlsx,You are about to start a block of type 2 trials.,10,10,0,Go,Go,0.14,0.2,0.05,space,green,vertical,space,253.56738909997512,None,space,1,0.3338623000308871,None,,,,0,1,1,1,0,10,10,10,651.592425800045,,,,,,,,,,,,,,,,651.5768379000947,651.592425800045,652.2917686000001,652.2917686000001,652.7914004999911,652.7754292000318,652.7759483000264,652.7914004999911,652.9414185000351,653.12456320005,653.12456320005,653.4754677000456,space,1,0.3338623000308871,None,653.4789378000423,653.9907373000169,654.9896516000153,654.9739872000646,,,,,,,,,,,,,,,,,011,002,2025-05-03_00h37.22.654,Cued GoNogo Task,2024.2.4,60.040299048035,2025-05-03 00h37.35.996371 +0200,
block/CondBlock2.xlsx,You are about to start a block of type 2 trials.,11,11,0,Go,Go,0.27,0.2,0.05,space,green,vertical,space,253.56738909997512,None,space,1,0.3310257000848651,None,,,,0,1,1,1,0,11,11,11,654.9896516000153,,,,,,,,,,,,,,,,654.9742693000007,654.9896516000153,655.68885590008,655.68885590008,656.1885341000743,656.1727197000291,656.1733193000546,656.1885341000743,656.4716438000323,656.6549333001021,656.6549333001021,656.9894064000109,space,1,0.3310257000848651,None,656.9931414000457,657.5041170000331,658.5033737000776,658.4875173000619,,,,,,,,,,,,,,,,,011,002,2025-05-03_00h37.22.654,Cued GoNogo Task,2024.2.4,60.040299048035,2025-05-03 00h37.35.996371 +0200,
block/CondBlock2.xlsx,You are about to start a block of type 2 trials.,12,12,0,Go,Go,0.3,0.05,0.2,space,green,horizontal,space,253.56738909997512,None,space,1,0.2324255999410525,None,,,,0,1,1,1,0,12,12,12,658.5033737000776,,,,,,,,,,,,,,,,658.4878129001008,658.5033737000776,659.2027160000289,659.2027160000289,659.7027613000246,659.6864446999971,659.6870312000392,659.7027613000246,660.002339300001,660.2025760000106,660.2025760000106,660.4373292000964,space,1,0.2324255999410525,None,660.4411126000341,660.9514832000714,661.9506824000273,661.9346989000915,,,,,,,,,,,,,,,,,011,002,2025-05-03_00h37.22.654,Cued GoNogo Task,2024.2.4,60.040299048035,2025-05-03 00h37.35.996371 +0200,
block/CondBlock2.xlsx,You are about to start a block of type 2 trials.,13,13,0,Go,Go,0.18,0.2,0.05,space,blue,vertical,space,253.56738909997512,None,space,1,0.2935660000657663,None,,,,0,1,1,1,0,13,13,13,661.9506824000273,,,,,,,,,,,,,,,,661.9349431000883,661.9506824000273,662.650259600021,662.650259600021,663.1495612000581,663.1339057000587,663.134748200071,663.1495612000581,663.3327352000633,663.5327724000672,663.5327724000672,663.8339846000308,space,1,0.2935660000657663,None,663.8387137000682,664.348834100063,665.3479410000145,665.3320382999955,,,,,,,,,,,,,,,,,011,002,2025-05-03_00h37.22.654,Cued GoNogo Task,2024.2.4,60.040299048035,2025-05-03 00h37.35.996371 +0200,
block/CondBlock2.xlsx,You are about to start a block of type 2 trials.,14,14,0,Go,Go,0.13,0.2,0.05,space,green,vertical,space,253.56738909997512,None,space,1,0.31467740004882216,None,,,,0,1,1,1,0,14,14,14,665.3479410000145,,,,,,,,,,,,,,,,665.3323284999933,665.3479410000145,666.0472763000289,666.0472763000289,666.5467971999897,666.5308121000417,666.5313322000438,666.5467971999897,666.6801151999971,666.8636579000158,666.8636579000158,667.1819361000089,space,1,0.31467740004882216,None,667.1862222000491,667.6958566000685,668.6951429999899,668.6792863000883,,,,,,,,,,,,,,,,,011,002,2025-05-03_00h37.22.654,Cued GoNogo Task,2024.2.4,60.040299048035,2025-05-03 00h37.35.996371 +0200,
block/CondBlock2.xlsx,You are about to start a block of type 2 trials.,15,15,0,Go,Go,0.18,0.2,0.05,space,blue,vertical,space,253.56738909997512,None,space,1,0.2782423000317067,None,,,,0,1,1,1,0,15,15,15,668.6951429999899,,,,,,,,,,,,,,,,668.6795952999964,668.6951429999899,669.3945935000665,669.3945935000665,669.8942060000263,669.8780066000763,669.8784069000976,669.8942060000263,670.0772309000604,670.2771358999889,670.2771358999889,670.5615502001019,space,1,0.2782423000317067,None,670.5650710000191,671.0765370000154,672.0757290000329,672.0601803000318,,,,,,,,,,,,,,,,,011,002,2025-05-03_00h37.22.654,Cued GoNogo Task,2024.2.4,60.040299048035,2025-05-03 00h37.35.996371 +0200,
block/CondBlock2.xlsx,You are about to start a block of type 2 trials.,16,16,0,Go,Go,0.24,0.2,0.05,space,green,vertical,space,253.56738909997512,None,space,1,0.33457649999763817,None,,,,0,1,1,1,0,16,16,16,672.0757290000329,,,,,,,,,,,,,,,,672.0604563000379,672.0757290000329,672.7751700000372,672.7751700000372,673.2747660999885,673.2589072000701,673.2596484000096,673.2747660999885,673.5246498000342,673.7076630000956,673.7076630000956,674.0587128000334,space,1,0.33457649999763817,None,674.0626519999932,674.5737210999941,675.5728200000012,675.5572085999884,,,,,,,,,,,,,,,,,011,002,2025-05-03_00h37.22.654,Cued GoNogo Task,2024.2.4,60.040299048035,2025-05-03 00h37.35.996371 +0200,
block/CondBlock2.xlsx,You are about to start a block of type 2 trials.,17,17,0,Go,Go,0.26,0.2,0.05,space,blue,vertical,space,253.56738909997512,None,space,1,0.284405899932608,None,,,,0,1,1,1,0,17,17,17,675.5728200000012,,,,,,,,,,,,,,,,675.557666100096,675.5728200000012,676.272144800052,676.272144800052,676.7718898000894,676.755846300046,676.7565444000065,676.7718898000894,677.0382587000495,677.2215165999951,677.2215165999951,677.5224313000217,space,1,0.284405899932608,None,677.5249958999921,678.0376076000975,679.0365462000482,679.0210626000771,,,,,,,,,,,,,,,,,011,002,2025-05-03_00h37.22.654,Cued GoNogo Task,2024.2.4,60.040299048035,2025-05-03 00h37.35.996371 +0200,
block/CondBlock2.xlsx,You are about to start a block of type 2 trials.,18,18,0,Go,Go,0.1,0.05,0.2,space,blue,horizontal,space,253.56738909997512,None,space,1,0.27548720000777394,None,,,,0,1,1,1,0,18,18,18,679.0365462000482,,,,,,,,,,,,,,,,679.021428200067,679.0365462000482,679.7361032000044,679.7361032000044,680.2357567000436,680.2197530000703,680.2204626000021,680.2357567000436,680.3353985000867,680.5354851000011,680.5354851000011,680.8195879000705,space,1,0.27548720000777394,None,680.8229526000796,681.33469779999,682.3340201000683,682.3179851000896,,,,,,,,,,,,,,,,,011,002,2025-05-03_00h37.22.654,Cued GoNogo Task,2024.2.4,60.040299048035,2025-05-03 00h37.35.996371 +0200,
block/CondBlock2.xlsx,You are about to start a block of type 2 trials.,19,19,0,Go,Go,0.46,0.2,0.05,space,blue,vertical,space,253.56738909997512,None,space,1,0.2926521999761462,None,,,,0,1,1,1,0,19,19,19,682.3340201000683,,,,,,,,,,,,,,,,682.3182413000613,682.3340201000683,683.033236999996,683.033236999996,683.5327092000516,683.5167124000145,683.5172261000844,683.5327092000516,683.9991460000165,684.1823565000668,684.1823565000668,684.4830996000674,space,1,0.2926521999761462,None,684.486866399995,684.9983348000096,685.99746340001,685.9814491000725,,,,,,,,,,,,,,,,,011,002,2025-05-03_00h37.22.654,Cued GoNogo Task,2024.2.4,60.040299048035,2025-05-03 00h37.35.996371 +0200,
block/CondBlock2.xlsx,You are about to start a block of type 2 trials.,20,20,0,Go,Go,0.3,0.05,0.2,space,blue,horizontal,space,253.56738909997512,None,space,1,0.298713400028646,None,,,,0,1,1,1,0,20,20,20,685.99746340001,,,,,,,,,,,,,,,,685.9816595000448,685.99746340001,686.6970738000236,686.6970738000236,687.1966675000731,687.1809200000716,687.1815878000343,687.1966675000731,687.49627220002,687.6962319000158,687.6962319000158,687.9973479000619,space,1,0.298713400028646,None,688.000628800015,688.5122883000877,689.5114337000996,689.4952790000243,,,,,,,,,,,,,,,,,011,002,2025-05-03_00h37.22.654,Cued GoNogo Task,2024.2.4,60.040299048035,2025-05-03 00h37.35.996371 +0200,
block/CondBlock2.xlsx,You are about to start a block of type 2 trials.,21,21,0,Go,Go,0.23,0.05,0.2,space,green,horizontal,space,253.56738909997512,None,space,1,0.3087668999796733,None,,,,0,1,1,1,0,21,21,21,689.5114337000996,,,,,,,,,,,,,,,,689.4955110000446,689.5114337000996,690.2113061000127,690.2113061000127,690.7103975000791,690.6943775000982,690.6950484000845,690.7103975000791,690.9434469999978,691.1267651000526,691.1267651000526,691.444540000055,space,1,0.3087668999796733,None,691.4491466000909,691.9593072000425,692.9585426000413,692.9428491001017,,,,,,,,,,,,,,,,,011,002,2025-05-03_00h37.22.654,Cued GoNogo Task,2024.2.4,60.040299048035,2025-05-03 00h37.35.996371 +0200,
block/CondBlock2.xlsx,You are about to start a block of type 2 trials.,22,22,0,Go,Go,0.19,0.2,0.05,space,green,vertical,space,253.56738909997512,None,space,1,0.333394099958241,None,,,,0,1,1,1,0,22,22,22,692.9585426000413,,,,,,,,,,,,,,,,692.9432108000619,692.9585426000413,693.6579428000841,693.6579428000841,694.1576061000815,694.1414516000077,694.1419020000612,694.1576061000815,694.3573171000462,694.5406762000639,694.5406762000639,694.8766006000806,space,1,0.333394099958241,None,694.8809608999873,695.3898322000168,696.3889467000263,696.3732355000684,,,,,,,,,,,,,,,,,011,002,2025-05-03_00h37.22.654,Cued GoNogo Task,2024.2.4,60.040299048035,2025-05-03 00h37.35.996371 +0200,
block/CondBlock2.xlsx,You are about to start a block of type 2 trials.,23,23,0,NoGo,NoGo,0.41,0.2,0.05,none,blue,vertical,space,253.56738909997512,None,None,1,,,,,,0,1,1,1,0,23,23,23,696.3889467000263,,,,,,,,,,,,,,,,696.3735416000709,696.3889467000263,697.0884323000209,697.0884323000209,697.58817490004,697.5719968000194,697.572532500024,697.58817490004,698.0042810000014,698.1874308000552,698.1874308000552,698.6714267000789,None,1,,,698.6757106001023,699.1867804999929,700.1859686000971,700.1703878000844,698.6869970000116,698.6869970000116,,,,,,,,,,,,,,,011,002,2025-05-03_00h37.22.654,Cued GoNogo Task,2024.2.4,60.040299048035,2025-05-03 00h37.35.996371 +0200,
block/CondBlock2.xlsx,You are about to start a block of type 2 trials.,24,24,0,Go,Go,0.17,0.2,0.05,space,blue,vertical,space,253.56738909997512,None,space,1,0.3549675999674946,None,,,,0,1,1,1,0,24,24,24,700.1859686000971,,,,,,,,,,,,,,,,700.1707702000858,700.1859686000971,700.885256400099,700.885256400099,701.3848964000354,701.3692087000236,701.3699885000242,701.3848964000354,701.5680394000374,701.7511806000257,701.7511806000257,702.1187952000182,space,1,0.3549675999674946,None,702.1226598999929,702.6339755000081,703.6331095000496,703.6170200000051,,,,,,,,,,,,,,,,,011,002,2025-05-03_00h37.22.654,Cued GoNogo Task,2024.2.4,60.040299048035,2025-05-03 00h37.35.996371 +0200,
block/CondBlock2.xlsx,You are about to start a block of type 2 trials.,25,25,0,Go,Go,0.27,0.05,0.2,space,blue,horizontal,space,253.56738909997512,None,space,1,0.28780719998758286,None,,,,0,1,1,1,0,25,25,25,703.6331095000496,,,,,,,,,,,,,,,,703.6172309000976,703.6331095000496,704.3326106000459,704.3326106000459,704.8322313000681,704.8163694000104,704.8171333000064,704.8322313000681,705.1151534999954,705.2982683000155,705.2982683000155,705.5998192999978,space,1,0.28780719998758286,None,705.6045734999934,706.1142439000541,707.1136246999959,707.0981428000377,,,,,,,,,,,,,,,,,011,002,2025-05-03_00h37.22.654,Cued GoNogo Task,2024.2.4,60.040299048035,2025-05-03 00h37.35.996371 +0200,
block/CondBlock2.xlsx,You are about to start a block of type 2 trials.,26,26,0,Go,Go,0.26,0.05,0.2,space,green,horizontal,space,253.56738909997512,None,space,1,0.23986239999067038,None,,,,0,1,1,1,0,26,26,26,707.1136246999959,,,,,,,,,,,,,,,,707.0984354000539,707.1136246999959,707.8128232000163,707.8128232000163,708.3126024000812,708.2966460000025,708.2972457000287,708.3126024000812,708.579064700054,708.7622939000139,708.7622939000139,709.0133542000549,space,1,0.23986239999067038,None,709.0182048000861,709.5282134000445,710.5275331999874,710.511545300018,,,,,,,,,,,,,,,,,011,002,2025-05-03_00h37.22.654,Cued GoNogo Task,2024.2.4,60.040299048035,2025-05-03 00h37.35.996371 +0200,
block/CondBlock2.xlsx,You are about to start a block of type 2 trials.,27,27,0,Go,Go,0.22,0.2,0.05,space,green,vertical,space,253.56738909997512,None,space,1,0.3168804000597447,None,,,,0,1,1,1,0,27,27,27,710.5275331999874,,,,,,,,,,,,,,,,710.5119372000918,710.5275331999874,711.2268629000755,711.2268629000755,711.7266535999952,711.7104577000719,711.7110824000556,711.7266535999952,711.9595464000013,712.1426847000839,712.1426847000839,712.4622925000731,space,1,0.3168804000597447,None,712.4667593000922,712.9752770999912,713.9746162000811,713.9584774000105,,,,,,,,,,,,,,,,,011,002,2025-05-03_00h37.22.654,Cued GoNogo Task,2024.2.4,60.040299048035,2025-05-03 00h37.35.996371 +0200,
block/CondBlock2.xlsx,You are about to start a block of type 2 trials.,28,28,0,Go,Go,0.19,0.05,0.2,space,blue,horizontal,space,253.56738909997512,None,space,1,0.37344530003611,None,,,,0,1,1,1,0,28,28,28,713.9746162000811,,,,,,,,,,,,,,,,713.958764100098,713.9746162000811,714.6740737000946,714.6740737000946,715.1733816000633,715.1578298000386,715.1584698000224,715.1733816000633,715.3734641000628,715.5567076000152,715.5567076000152,715.9407671000808,space,1,0.37344530003611,None,715.9445387000451,716.4560272000963,717.4552845000289,717.4390073000686,,,,,,,,,,,,,,,,,011,002,2025-05-03_00h37.22.654,Cued GoNogo Task,2024.2.4,60.040299048035,2025-05-03 00h37.35.996371 +0200,
block/CondBlock2.xlsx,You are about to start a block of type 2 trials.,29,29,0,Go,Go,0.18,0.05,0.2,space,blue,horizontal,space,253.56738909997512,None,space,1,0.3110320999985561,None,,,,0,1,1,1,0,29,29,29,717.4552845000289,,,,,,,,,,,,,,,,717.4392472000327,717.4552845000289,718.1546629000222,718.1546629000222,718.6539563999977,718.6384422000265,718.6390913000796,718.6539563999977,718.8373554000864,719.020405700081,719.020405700081,719.3377994000912,space,1,0.3110320999985561,None,719.3414751000237,719.8530142999953,720.8521343000466,720.8363667000085,,,,,,,,,,,,,,,,,011,002,2025-05-03_00h37.22.654,Cued GoNogo Task,2024.2.4,60.040299048035,2025-05-03 00h37.35.996371 +0200,
block/CondBlock2.xlsx,You are about to start a block of type 2 trials.,30,30,0,NoGo,NoGo,0.23,0.2,0.05,none,blue,vertical,space,253.56738909997512,None,None,1,,,,,,0,1,1,1,0,30,30,30,720.8521343000466,,,,,,,,,,,,,,,,720.8366530000931,720.8521343000466,721.5516963000409,721.5516963000409,722.0511249999981,722.0354555000085,722.0360855000326,722.0511249999981,722.2844530000584,722.4678120000754,722.4678120000754,722.9513970999978,None,1,,,722.9544206000865,723.4667264000745,724.4659668999957,724.4503651000559,722.967071000021,722.967071000021,,,,,,,,,,,,,,,011,002,2025-05-03_00h37.22.654,Cued GoNogo Task,2024.2.4,60.040299048035,2025-05-03 00h37.35.996371 +0200,
block/CondBlock2.xlsx,You are about to start a block of type 2 trials.,31,31,0,Go,Go,0.43,0.2,0.05,space,green,vertical,space,253.56738909997512,None,space,1,0.3218673000810668,None,,,,0,1,1,1,0,31,31,31,724.4659668999957,,,,,,,,,,,,,,,,724.4507324000588,724.4659668999957,725.1655569000868,725.1655569000868,725.6649853000417,725.6489122000057,725.6494649000233,725.6649853000417,726.0978848000523,726.281183400075,726.281183400075,726.615048800013,space,1,0.3218673000810668,None,726.6181602000725,727.1305233000312,,728.1299130000407,,,,,,,,,,,,,,,,,011,002,2025-05-03_00h37.22.654,Cued GoNogo Task,2024.2.4,60.040299048035,2025-05-03 00h37.35.996371 +0200,
block/CondBlock2.xlsx,You are about to start a block of type 2 trials.,32,32,0,Go,Go,0.13,0.05,0.2,space,blue,horizontal,space,253.56738909997512,None,space,1,0.35665630002040416,None,,,,0,1,1,1,0,32,32,32,728.1464459000854,,,,,,,,,,,,,,,,728.1301628000801,728.1464459000854,728.8289004000835,728.8454367000377,729.3285886000376,729.3126355001004,729.3132576000644,729.3285886000376,729.4619643000187,729.645140800043,729.645140800043,730.0124044000404,space,1,0.35665630002040416,None,730.0166251000483,730.5276939000469,731.5268685000483,731.5113552000839,,,,,,,,,,,,,,,,,011,002,2025-05-03_00h37.22.654,Cued GoNogo Task,2024.2.4,60.040299048035,2025-05-03 00h37.35.996371 +0200,
block/CondBlock2.xlsx,You are about to start a block of type 2 trials.,33,33,0,Go,Go,0.45,0.05,0.2,space,green,horizontal,space,253.56738909997512,None,space,1,0.3077370000537485,None,,,,0,1,1,1,0,33,33,33,731.5268685000483,,,,,,,,,,,,,,,,731.5118043000111,731.5268685000483,732.2261479001027,732.2261479001027,732.7256817000452,732.7099182000384,732.7105079999892,732.7256817000452,733.1753457000013,733.3752885001013,733.3752885001013,733.6926431000466,space,1,0.3077370000537485,None,733.6960086000618,734.2077060000738,735.2071174000157,735.1914083000738,,,,,,,,,,,,,,,,,011,002,2025-05-03_00h37.22.654,Cued GoNogo Task,2024.2.4,60.040299048035,2025-05-03 00h37.35.996371 +0200,
block/CondBlock2.xlsx,You are about to start a block of type 2 trials.,34,34,0,Go,Go,0.14,0.2,0.05,space,blue,vertical,space,253.56738909997512,None,None,0,,,,,,0,1,1,1,0,34,34,34,735.2071174000157,,,,,,,,,,,,,,,,735.1917313000886,735.2071174000157,735.9065912000369,735.9065912000369,736.4060814999975,736.3900219000643,736.3905610000947,736.4060814999975,736.5559874000028,736.7390678999946,736.7390678999946,737.2231756000547,None,0,,,737.2259021000937,737.7384471000405,738.7375677000964,738.7214656000724,737.2388579000253,737.2388579000253,,,,,,,,,,,,,,,011,002,2025-05-03_00h37.22.654,Cued GoNogo Task,2024.2.4,60.040299048035,2025-05-03 00h37.35.996371 +0200,
block/CondBlock2.xlsx,You are about to start a block of type 2 trials.,35,35,0,Go,Go,0.11,0.2,0.05,space,blue,vertical,space,253.56738909997512,None,space,1,0.2864845999283716,None,,,,0,1,1,1,0,35,35,35,738.7375677000964,,,,,,,,,,,,,,,,738.7216944000684,738.7375677000964,739.4369175999891,739.4369175999891,739.9364466000115,739.9206796000944,739.921348300064,739.9364466000115,740.0532080000266,740.2362235999899,740.2362235999899,740.5369470000733,space,1,0.2864845999283716,None,740.5402210000902,741.0524215000914,,742.0518447000068,,,,,,,,,,,,,,,,,011,002,2025-05-03_00h37.22.654,Cued GoNogo Task,2024.2.4,60.040299048035,2025-05-03 00h37.35.996371 +0200,
block/CondBlock2.xlsx,You are about to start a block of type 2 trials.,36,36,0,Go,Go,0.15,0.05,0.2,space,green,horizontal,space,253.56738909997512,None,space,1,0.34638419991824776,None,,,,0,1,1,1,0,36,36,36,742.0681884000078,,,,,,,,,,,,,,,,742.0521836000262,742.0681884000078,742.7508321000496,742.7674813000485,743.2505001000827,743.234596400056,743.2353387000039,743.2505001000827,743.4003519000253,743.6003334000707,743.6003334000707,743.9507616000483,space,1,0.34638419991824776,None,743.9541865000501,744.4661413000431,745.4653458000394,745.4494879000122,,,,,,,,,,,,,,,,,011,002,2025-05-03_00h37.22.654,Cued GoNogo Task,2024.2.4,60.040299048035,2025-05-03 00h37.35.996371 +0200,
block/CondBlock2.xlsx,You are about to start a block of type 2 trials.,37,37,0,Go,Go,0.15,0.2,0.05,space,green,vertical,space,253.56738909997512,None,space,1,0.3731077000265941,None,,,,0,1,1,1,0,37,37,37,745.4653458000394,,,,,,,,,,,,,,,,745.4498375999974,745.4653458000394,746.1647939000977,746.1647939000977,746.6643786000786,746.648797800066,746.6495266000275,746.6643786000786,746.8145181,747.0140354000032,747.0140354000032,747.3985450000037,space,1,0.3731077000265941,None,747.4027439000783,747.9133721000981,748.9125475999899,748.8966458000941,,,,,,,,,,,,,,,,,011,002,2025-05-03_00h37.22.654,Cued GoNogo Task,2024.2.4,60.040299048035,2025-05-03 00h37.35.996371 +0200,
block/CondBlock2.xlsx,You are about to start a block of type 2 trials.,38,38,0,NoGo,NoGo,0.14,0.2,0.05,none,green,vertical,space,253.56738909997512,None,None,1,,,,,,0,1,1,1,0,38,38,38,748.9125475999899,,,,,,,,,,,,,,,,748.8968774999958,748.9125475999899,749.6121140000178,749.6121140000178,750.1114420000231,750.0957470000722,750.0964201000752,750.1114420000231,750.2615986000746,750.4447743000928,750.4447743000928,750.9284267000621,None,1,,,750.9311990001006,751.4439152000705,,752.4431166000431,750.9440712000942,750.9440712000942,,,,,,,,,,,,,,,011,002,2025-05-03_00h37.22.654,Cued GoNogo Task,2024.2.4,60.040299048035,2025-05-03 00h37.35.996371 +0200,
block/CondBlock2.xlsx,You are about to start a block of type 2 trials.,39,39,0,Go,Go,0.46,0.2,0.05,space,green,vertical,space,253.56738909997512,None,space,1,0.3588278000243008,None,,,,0,1,1,1,0,39,39,39,752.4594837999903,,,,,,,,,,,,,,,,752.4434182000114,752.4594837999903,753.142420600052,753.159109900007,753.6420064000413,753.6261161000002,753.6268890000647,753.6420064000413,754.1082389000803,754.2913254000014,754.2913254000014,754.6588613000931,space,1,0.3588278000243008,None,754.6625059000216,755.1742187000345,,756.1733865001006,,,,,,,,,,,,,,,,,011,002,2025-05-03_00h37.22.654,Cued GoNogo Task,2024.2.4,60.040299048035,2025-05-03 00h37.35.996371 +0200,
block/CondBlock2.xlsx,You are about to start a block of type 2 trials.,40,40,0,Go,Go,0.5,0.05,0.2,space,blue,horizontal,space,253.56738909997512,None,space,1,0.37824049999471754,None,,,,0,1,1,1,0,40,40,40,756.1899611999979,,,,,,,,,,,,,,,,756.1735877000028,756.1899611999979,756.8728619000176,756.8892970000161,757.3721263000043,757.3562539000995,757.3569063000614,757.3721263000043,757.87163040007,758.0716442000121,758.0716442000121,758.4557227999903,space,1,0.37824049999471754,None,758.4589317000937,758.970924400026,759.9702852000482,759.9542398999911,,,,,,,,,,,,,,,,,011,002,2025-05-03_00h37.22.654,Cued GoNogo Task,2024.2.4,60.040299048035,2025-05-03 00h37.35.996371 +0200,
block/CondBlock2.xlsx,You are about to start a block of type 2 trials.,41,41,0,Go,Go,0.16,0.05,0.2,space,green,horizontal,space,253.56738909997512,None,space,1,0.41986289992928505,None,,,,0,1,1,1,0,41,41,41,759.9702852000482,,,,,,,,,,,,,,,,759.9545423000818,759.9702852000482,760.6694707000861,760.6694707000861,761.1690138000995,761.153086300008,761.1537082000868,761.1690138000995,761.3356005999958,761.5187760000117,761.5187760000117,761.9527776000323,space,1,0.41986289992928505,None,761.9574192001019,762.4680040000239,763.4671373000601,763.4516362000722,,,,,,,,,,,,,,,,,011,002,2025-05-03_00h37.22.654,Cued GoNogo Task,2024.2.4,60.040299048035,2025-05-03 00h37.35.996371 +0200,
