Block,blockMsg,thisN,thisTrialN,thisRepN,CueType,StimType,CueTime,Stim_Height,Stim_Width,CRESP,Color,Orientation,key_resp_2.keys,key_resp_2.rt,key_resp_2.duration,Key_Resp.keys,Key_Resp.corr,Key_Resp.rt,Key_Resp.duration,key_resp_3.keys,key_resp_3.rt,key_resp_3.duration,Blocks.thisRepN,Blocks.thisTrialN,Blocks.thisN,Blocks.thisIndex,Trials.thisRepN,Trials.thisTrialN,Trials.thisN,Trials.thisIndex,thisRow.t,notes,TaskIntro.started,fixation.started,key_resp.started,TaskIntro.stopped,key_resp.keys,key_resp.rt,key_resp.duration,BlockStart.started,BlockStart_Msg.started,key_resp_2.started,BlockStart.stopped,Blocks.key_resp_2.keys,Blocks.key_resp_2.rt,Blocks.key_resp_2.duration,Fixation.started,FixationPhase.started,Blank.started,FixationPhase.stopped,Blank.stopped,Fixation.stopped,Trial.started,Cue.started,Cue.stopped,GoNogo_Stim.started,Key_Resp.started,Trial.stopped,Trials.Key_Resp.keys,Trials.Key_Resp.corr,Trials.Key_Resp.rt,Trials.Key_Resp.duration,Feedback.started,Feedback_Present.started,Feedback.stopped,GoNogo_Stim.stopped,Key_Resp.stopped,Feedback_Present.stopped,BlockEnd.started,BlockEnd_Msg.started,key_resp_3.started,BlockEnd.stopped,Blocks.key_resp_3.keys,Blocks.key_resp_3.rt,Blocks.key_resp_3.duration,TaskEnd.started,ThankYou.started,key_resp_4.started,TaskEnd.stopped,key_resp_4.keys,key_resp_4.rt,key_resp_4.duration,participant,session,date,expName,psychopyVersion,frameRate,expStart,
,,,,,,,,,,,,,,,,,,,,,,,,,,,,,,,,,0.07799860008526593,0.09803630004171282,0.09803630004171282,47.218868900090456,space,47.10835940006655,None,,,,,,,,,,,,,,,,,,,,,,,,,,,,,,,,,,,,,,,,,,,,012,001,2025-05-01_04h36.23.516,Cued GoNogo Task,2024.2.4,59.98098599438131,2025-05-01 04h36.29.132987 +0200,
block/CondBlock1.xlsx,You are about to start a block of type 1 trials.,0,0,0,Go,Go,0.13,0.05,0.2,space,blue,horizontal,space,1.8704408999765292,None,space,1,0.24044880003202707,None,,,,0,0,0,0,0,0,0,0,49.17318750009872,,,,,,,,,47.22894820000511,47.23213520005811,47.23213520005811,49.11515620001592,space,1.8704408999765292,None,49.17003370006569,49.17318750009872,49.83032010006718,49.88016830000561,50.329573700088076,50.313819400034845,50.31444250000641,50.329573700088076,50.462932600057684,50.64619840006344,50.64619840006344,50.8971863000188,space,1,0.24044880003202707,None,50.90809130005073,51.41242420009803,52.411483800038695,,,,,,,,,,,,,,,,,,012,001,2025-05-01_04h36.23.516,Cued GoNogo Task,2024.2.4,59.98098599438131,2025-05-01 04h36.29.132987 +0200,
block/CondBlock1.xlsx,You are about to start a block of type 1 trials.,1,1,0,NoGo,NoGo,0.43,0.05,0.2,none,blue,horizontal,space,1.8704408999765292,None,None,1,,,,,,0,0,0,0,0,1,1,1,52.42802190000657,,,,,,,,,,,,,,,,52.41174240002874,52.42802190000657,53.11098340002354,53.12735329999123,53.61042160005309,53.59415770007763,53.59459750005044,53.61042160005309,54.04348350001965,54.22661600005813,54.22661600005813,54.71054210001603,None,1,,,54.71409380005207,55.22568030003458,56.20929110003635,54.7260655000573,54.7260655000573,56.22484720009379,,,,,,,,,,,,,,,012,001,2025-05-01_04h36.23.516,Cued GoNogo Task,2024.2.4,59.98098599438131,2025-05-01 04h36.29.132987 +0200,
block/CondBlock1.xlsx,You are about to start a block of type 1 trials.,2,2,0,Go,Go,0.12,0.2,0.05,space,blue,vertical,space,1.8704408999765292,None,space,1,0.13804750004783273,None,,,,0,0,0,0,0,2,2,2,56.22484720009379,,,,,,,,,,,,,,,,56.20958270004485,56.22484720009379,56.92433670000173,56.92433670000173,57.4239350000862,57.40843070007395,57.40900650003459,57.4239350000862,57.557336600031704,57.74034770007711,57.74034770007711,57.891268000006676,space,1,0.13804750004783273,None,57.89679000002798,58.40662290004548,59.38973650010303,,,59.405578800011426,,,,,,,,,,,,,,,012,001,2025-05-01_04h36.23.516,Cued GoNogo Task,2024.2.4,59.98098599438131,2025-05-01 04h36.29.132987 +0200,
block/CondBlock1.xlsx,You are about to start a block of type 1 trials.,3,3,0,NoGo,NoGo,0.18,0.2,0.05,none,green,vertical,space,1.8704408999765292,None,None,1,,,,,,0,0,0,0,0,3,3,3,59.405578800011426,,,,,,,,,,,,,,,,59.389988200040534,59.405578800011426,60.10506150010042,60.10506150010042,60.60457319999114,60.589038900099695,60.58964130003005,60.60457319999114,60.78785560000688,60.971124600037,60.971124600037,61.454975400003605,None,1,,,61.45787070004735,61.97026710002683,62.95395220001228,61.47056730010081,61.47056730010081,62.96932400006335,,,,,,,,,,,,,,,012,001,2025-05-01_04h36.23.516,Cued GoNogo Task,2024.2.4,59.98098599438131,2025-05-01 04h36.29.132987 +0200,
block/CondBlock1.xlsx,You are about to start a block of type 1 trials.,4,4,0,Go,Go,0.24,0.05,0.2,space,green,horizontal,space,1.8704408999765292,None,space,1,0.14073530002497137,None,,,,0,0,0,0,0,4,4,4,62.96932400006335,,,,,,,,,,,,,,,,62.95442319998983,62.96932400006335,63.66887940000743,63.66887940000743,64.16850370005704,64.15252730005886,64.15331300010439,64.16850370005704,64.41810870007612,64.60136490000878,64.60136490000878,64.75202850007918,space,1,0.14073530002497137,None,64.75499020004645,65.26751920010429,66.25063170003705,,,66.26668740005698,,,,,,,,,,,,,,,012,001,2025-05-01_04h36.23.516,Cued GoNogo Task,2024.2.4,59.98098599438131,2025-05-01 04h36.29.132987 +0200,
block/CondBlock1.xlsx,You are about to start a block of type 1 trials.,5,5,0,Go,Go,0.21,0.05,0.2,space,blue,horizontal,space,1.8704408999765292,None,space,1,0.1561148000182584,None,,,,0,0,0,0,0,5,5,5,66.26668740005698,,,,,,,,,,,,,,,,66.25092280004174,66.26668740005698,66.96596370008774,66.96596370008774,67.46566870005336,67.44969440007117,67.45034670003224,67.46566870005336,67.68201900005806,67.86546630004887,67.86546630004887,68.03315430006478,space,1,0.1561148000182584,None,68.03776700003073,68.5480900000548,69.53162840008736,,,69.54734000004828,,,,,,,,,,,,,,,012,001,2025-05-01_04h36.23.516,Cued GoNogo Task,2024.2.4,59.98098599438131,2025-05-01 04h36.29.132987 +0200,
block/CondBlock1.xlsx,You are about to start a block of type 1 trials.,6,6,0,Go,Go,0.11,0.2,0.05,space,blue,vertical,space,1.8704408999765292,None,space,1,0.15199609997216612,None,,,,0,0,0,0,0,6,6,6,69.54734000004828,,,,,,,,,,,,,,,,69.53188850008883,69.54734000004828,70.24667930009309,70.24667930009309,70.74616910004988,70.729868000024,70.73033640009817,70.74616910004988,70.86280320002697,71.04608100000769,71.04608100000769,71.21427710005082,space,1,0.15199609997216612,None,71.21938420005608,71.72897789999843,72.7282859000843,,,,,,,,,,,,,,,,,,012,001,2025-05-01_04h36.23.516,Cued GoNogo Task,2024.2.4,59.98098599438131,2025-05-01 04h36.29.132987 +0200,
block/CondBlock1.xlsx,You are about to start a block of type 1 trials.,7,7,0,Go,Go,0.15,0.2,0.05,space,blue,vertical,space,1.8704408999765292,None,space,1,0.1365296000149101,None,,,,0,0,0,0,0,7,7,7,72.74460650002584,,,,,,,,,,,,,,,,72.72863350005355,72.74460650002584,73.42735840007663,73.44410419999622,73.92706440004986,73.91099590004887,73.9115138000343,73.92706440004986,74.07688910001889,74.2767246000003,74.2767246000003,74.42786679998972,space,1,0.1365296000149101,None,74.43124880001415,74.94291390001308,75.92600550001953,,,75.94201360002626,,,,,,,,,,,,,,,012,001,2025-05-01_04h36.23.516,Cued GoNogo Task,2024.2.4,59.98098599438131,2025-05-01 04h36.29.132987 +0200,
block/CondBlock1.xlsx,You are about to start a block of type 1 trials.,8,8,0,NoGo,NoGo,0.3,0.05,0.2,none,blue,horizontal,space,1.8704408999765292,None,None,1,,,,,,0,0,0,0,0,8,8,8,75.94201360002626,,,,,,,,,,,,,,,,75.92628410004545,75.94201360002626,76.64141230005771,76.64141230005771,77.1411875000922,77.12505360005889,77.12567920004949,77.1411875000922,77.44092670001555,77.64078250003513,77.64078250003513,78.12419430003501,None,1,,,78.12636340002064,78.63978850003332,79.6229491000995,78.1402103001019,78.1402103001019,79.63910620007664,,,,,,,,,,,,,,,012,001,2025-05-01_04h36.23.516,Cued GoNogo Task,2024.2.4,59.98098599438131,2025-05-01 04h36.29.132987 +0200,
block/CondBlock1.xlsx,You are about to start a block of type 1 trials.,9,9,0,NoGo,NoGo,0.17,0.05,0.2,none,blue,horizontal,space,1.8704408999765292,None,None,1,,,,,,0,0,0,0,0,9,9,9,79.63910620007664,,,,,,,,,,,,,,,,79.62318150000647,79.63910620007664,80.33827090007253,80.33827090007253,80.83795830002055,80.82216470001731,80.82282660005149,80.83795830002055,81.02113340003416,81.20431510009803,81.20431510009803,81.68781110004056,None,1,,,81.68822750006802,82.18706970009953,83.18696630001068,81.70387980004307,81.70387980004307,83.2028169000987,,,,,,,,,,,,,,,012,001,2025-05-01_04h36.23.516,Cued GoNogo Task,2024.2.4,59.98098599438131,2025-05-01 04h36.29.132987 +0200,
block/CondBlock1.xlsx,You are about to start a block of type 1 trials.,10,10,0,NoGo,NoGo,0.26,0.2,0.05,none,green,vertical,space,1.8704408999765292,None,None,1,,,,,,0,0,0,0,0,10,10,10,83.2028169000987,,,,,,,,,,,,,,,,83.18726160004735,83.2028169000987,83.90230890002567,83.90230890002567,84.4017368000932,84.38606879999861,84.38672210008372,84.4017368000932,84.66817150008865,84.85145940002985,84.85145940002985,85.33490510005504,None,1,,,85.3353202000726,85.83392320002895,86.81740220007487,85.3510562001029,85.3510562001029,86.83299470006023,,,,,,,,,,,,,,,012,001,2025-05-01_04h36.23.516,Cued GoNogo Task,2024.2.4,59.98098599438131,2025-05-01 04h36.29.132987 +0200,
block/CondBlock1.xlsx,You are about to start a block of type 1 trials.,11,11,0,Go,Go,0.27,0.05,0.2,space,green,horizontal,space,1.8704408999765292,None,space,1,0.19519859994761646,None,,,,0,0,0,0,0,11,11,11,86.83299470006023,,,,,,,,,,,,,,,,86.81770250003319,86.84996080002747,87.54903830005787,87.54903830005787,88.0487148000393,88.03289969998877,88.03369980002753,88.0487148000393,88.33186610008124,88.51494140003342,88.51494140003342,88.7158136999933,space,1,0.19519859994761646,None,88.72020810004324,89.23122190008871,90.21448640001472,,,90.23024880001321,,,,,,,,,,,,,,,012,001,2025-05-01_04h36.23.516,Cued GoNogo Task,2024.2.4,59.98098599438131,2025-05-01 04h36.29.132987 +0200,
block/CondBlock1.xlsx,You are about to start a block of type 1 trials.,12,12,0,Go,Go,0.16,0.2,0.05,space,green,vertical,space,1.8704408999765292,None,space,1,0.22750119992997497,None,,,,0,0,0,0,0,12,12,12,90.23024880001321,,,,,,,,,,,,,,,,90.21483710000757,90.23024880001321,90.92945689999033,90.92945689999033,91.42921530001331,91.41340359998867,91.41417440003715,91.42921530001331,91.5959228000138,91.77911170001607,91.77911170001607,92.01398040005006,space,1,0.22750119992997497,None,92.01859330001753,92.52830900007393,93.51177540002391,,,93.527596800006,,,,,,,,,,,,,,,012,001,2025-05-01_04h36.23.516,Cued GoNogo Task,2024.2.4,59.98098599438131,2025-05-01 04h36.29.132987 +0200,
block/CondBlock1.xlsx,You are about to start a block of type 1 trials.,13,13,0,Go,Go,0.13,0.2,0.05,space,green,vertical,space,1.8704408999765292,None,space,1,0.20338970003649592,None,,,,0,0,0,0,0,13,13,13,93.527596800006,,,,,,,,,,,,,,,,93.51220760005526,93.527596800006,94.22715610009618,94.22715610009618,94.72675110003911,94.71043140010443,94.71099610009696,94.72675110003911,94.85994130000472,95.04296120000072,95.04296120000072,95.26066250004806,space,1,0.20338970003649592,None,95.26475890004076,95.77622220001649,96.77509890007786,,,,,,,,,,,,,,,,,,012,001,2025-05-01_04h36.23.516,Cued GoNogo Task,2024.2.4,59.98098599438131,2025-05-01 04h36.29.132987 +0200,
block/CondBlock1.xlsx,You are about to start a block of type 1 trials.,14,14,0,Go,Go,0.12,0.05,0.2,space,blue,horizontal,space,1.8704408999765292,None,space,1,0.2109861000208184,None,,,,0,0,0,0,0,14,14,14,96.79148360004183,,,,,,,,,,,,,,,,96.77542369998991,96.79148360004183,97.47433390002698,97.49107740004547,97.97384029999375,97.95802560006268,97.95871810009703,97.97384029999375,98.10716230003163,98.29034290008713,98.29034290008713,98.50815190002322,space,1,0.2109861000208184,None,98.51303800009191,99.0229731000727,100.00614110007882,,,100.02226350002456,,,,,,,,,,,,,,,012,001,2025-05-01_04h36.23.516,Cued GoNogo Task,2024.2.4,59.98098599438131,2025-05-01 04h36.29.132987 +0200,
block/CondBlock1.xlsx,You are about to start a block of type 1 trials.,15,15,0,Go,Go,0.45,0.2,0.05,space,blue,vertical,space,1.8704408999765292,None,space,1,0.06337039999198169,None,,,,0,0,0,0,0,15,15,15,100.02226350002456,,,,,,,,,,,,,,,,100.0063939000247,100.02226350002456,100.72174820001237,100.72174820001237,101.22129980009049,101.20523710001726,101.20589510002173,101.22129980009049,101.6709074000828,101.87076810002327,101.87076810002327,101.93848710006569,space,1,0.06337039999198169,None,101.9419179999968,102.45361500000581,103.43711679999251,,,103.4527817000635,,,,,,,,,,,,,,,012,001,2025-05-01_04h36.23.516,Cued GoNogo Task,2024.2.4,59.98098599438131,2025-05-01 04h36.29.132987 +0200,
block/CondBlock1.xlsx,You are about to start a block of type 1 trials.,16,16,0,NoGo,NoGo,0.14,0.2,0.05,none,green,vertical,space,1.8704408999765292,None,space,0,0.18869590002577752,None,,,,0,0,0,0,0,16,16,16,103.4527817000635,,,,,,,,,,,,,,,,103.43740110006183,103.4527817000635,104.15208850009367,104.15208850009367,104.65178200008813,104.63567700004205,104.63630650006235,104.65178200008813,104.80160560004879,104.98459740006365,104.98459740006365,105.18560720002279,space,0,0.18869590002577752,None,105.1933560000034,105.70101520000026,106.68461070000194,,,106.70044790010434,,,,,,,,,,,,,,,012,001,2025-05-01_04h36.23.516,Cued GoNogo Task,2024.2.4,59.98098599438131,2025-05-01 04h36.29.132987 +0200,
block/CondBlock1.xlsx,You are about to start a block of type 1 trials.,17,17,0,Go,Go,0.12,0.05,0.2,space,green,horizontal,space,1.8704408999765292,None,space,1,0.18339719995856285,None,,,,0,0,0,0,0,17,17,17,106.70044790010434,,,,,,,,,,,,,,,,106.68494400009513,106.70044790010434,107.39962680009194,107.39962680009194,107.89910260005854,107.88297700008843,107.88343829999212,107.89910260005854,108.03227140009403,108.21557680005208,108.21557680005208,108.40129220008384,space,1,0.18339719995856285,None,108.40552860009484,108.91495170001872,109.898294200073,,,109.91401360009331,,,,,,,,,,,,,,,012,001,2025-05-01_04h36.23.516,Cued GoNogo Task,2024.2.4,59.98098599438131,2025-05-01 04h36.29.132987 +0200,
block/CondBlock1.xlsx,You are about to start a block of type 1 trials.,18,18,0,Go,Go,0.47,0.2,0.05,space,blue,vertical,space,1.8704408999765292,None,space,1,0.13192049995996058,None,,,,0,0,0,0,0,18,18,18,109.91401360009331,,,,,,,,,,,,,,,,109.89858160004951,109.91401360009331,110.61367069999687,110.61367069999687,111.11321440001484,111.09762450004928,111.09831510006916,111.11321440001484,111.59617590007838,111.77913460007403,111.77913460007403,111.91425050003454,space,1,0.13192049995996058,None,111.91748629999347,112.42857129999902,113.41220690007322,,,113.42772720009089,,,,,,,,,,,,,,,012,001,2025-05-01_04h36.23.516,Cued GoNogo Task,2024.2.4,59.98098599438131,2025-05-01 04h36.29.132987 +0200,
block/CondBlock1.xlsx,You are about to start a block of type 1 trials.,19,19,0,Go,Go,0.18,0.2,0.05,space,green,vertical,space,1.8704408999765292,None,space,1,0.1809059000806883,None,,,,0,0,0,0,0,19,19,19,113.42772720009089,,,,,,,,,,,,,,,,113.41257440007757,113.42772720009089,114.12720310001168,114.12720310001168,114.62676910008304,114.61103640007786,114.61163150006905,114.62676910008304,114.81003400008194,114.99332770006731,114.99332770006731,115.17757729999721,space,1,0.1809059000806883,None,115.18045400001574,115.69286499998998,116.67597199999727,,,116.69179910002276,,,,,,,,,,,,,,,012,001,2025-05-01_04h36.23.516,Cued GoNogo Task,2024.2.4,59.98098599438131,2025-05-01 04h36.29.132987 +0200,
block/CondBlock1.xlsx,You are about to start a block of type 1 trials.,20,20,0,Go,Go,0.19,0.2,0.05,space,blue,vertical,space,1.8704408999765292,None,space,1,0.18776399991475046,None,,,,0,0,0,0,0,20,20,20,116.69179910002276,,,,,,,,,,,,,,,,116.67625640006736,116.69179910002276,117.39135930000339,117.39135930000339,117.89093490003143,117.87501320010051,117.87568649998866,117.89093490003143,118.09075229999144,118.27401400008239,118.27401400008239,118.47521910001524,space,1,0.18776399991475046,None,118.48020380001981,118.9899480000604,119.97331690008286,,,119.98917790001724,,,,,,,,,,,,,,,012,001,2025-05-01_04h36.23.516,Cued GoNogo Task,2024.2.4,59.98098599438131,2025-05-01 04h36.29.132987 +0200,
block/CondBlock1.xlsx,You are about to start a block of type 1 trials.,21,21,0,Go,Go,0.14,0.2,0.05,space,blue,vertical,space,1.8704408999765292,None,space,1,0.20554059999994934,None,,,,0,0,0,0,0,21,21,21,119.98917790001724,,,,,,,,,,,,,,,,119.97363480005879,119.98917790001724,120.68851850007195,120.68851850007195,121.18824570009019,121.17231370008085,121.17303540010471,121.18824570009019,121.33798140008003,121.52116930007469,121.52116930007469,121.7391079000663,space,1,0.20554059999994934,None,121.74252770002931,122.25391600001603,123.23716830008198,,,123.25301660003606,,,,,,,,,,,,,,,012,001,2025-05-01_04h36.23.516,Cued GoNogo Task,2024.2.4,59.98098599438131,2025-05-01 04h36.29.132987 +0200,
block/CondBlock1.xlsx,You are about to start a block of type 1 trials.,22,22,0,Go,Go,0.15,0.2,0.05,space,blue,vertical,space,1.8704408999765292,None,space,1,0.12384979997295886,None,,,,0,0,0,0,0,22,22,22,123.25301660003606,,,,,,,,,,,,,,,,123.23743840004317,123.25301660003606,123.9525038000429,123.9525038000429,124.45223390008323,124.43625750008505,124.43700949999038,124.45223390008323,124.60205490002409,124.8018643000396,124.8018643000396,124.93661960004829,space,1,0.12384979997295886,None,124.94070310005918,125.4513090000255,126.43459150008857,,,126.4504071000265,,,,,,,,,,,,,,,012,001,2025-05-01_04h36.23.516,Cued GoNogo Task,2024.2.4,59.98098599438131,2025-05-01 04h36.29.132987 +0200,
block/CondBlock1.xlsx,You are about to start a block of type 1 trials.,23,23,0,Go,Go,0.23,0.05,0.2,space,green,horizontal,space,1.8704408999765292,None,space,1,0.23614190006628633,None,,,,0,0,0,0,0,23,23,23,126.4504071000265,,,,,,,,,,,,,,,,126.43486520007718,126.4504071000265,127.1499049999984,127.1499049999984,127.6495983999921,127.63376330002211,127.634460600093,127.6495983999921,127.8825569000328,128.0658870000625,128.0658870000625,128.31691250007134,space,1,0.23614190006628633,None,128.32125929999165,128.83183530007955,129.81541630008724,,,129.83117910008878,,,,,,,,,,,,,,,012,001,2025-05-01_04h36.23.516,Cued GoNogo Task,2024.2.4,59.98098599438131,2025-05-01 04h36.29.132987 +0200,
block/CondBlock1.xlsx,You are about to start a block of type 1 trials.,24,24,0,Go,Go,0.2,0.2,0.05,space,blue,vertical,space,1.8704408999765292,None,space,1,0.19237339997198433,None,,,,0,0,0,0,0,24,24,24,129.83117910008878,,,,,,,,,,,,,,,,129.8157597000245,129.83117910008878,130.53036450000945,130.53036450000945,131.03006890008692,131.01429580000695,131.01514370006043,131.03006890008692,131.22991110000294,131.429812700022,131.429812700022,131.6304669000674,space,1,0.19237339997198433,None,131.63403740001377,132.14587000000756,133.12897190009244,,,133.14504590001889,,,,,,,,,,,,,,,012,001,2025-05-01_04h36.23.516,Cued GoNogo Task,2024.2.4,59.98098599438131,2025-05-01 04h36.29.132987 +0200,
block/CondBlock1.xlsx,You are about to start a block of type 1 trials.,25,25,0,Go,Go,0.15,0.2,0.05,space,blue,vertical,space,1.8704408999765292,None,space,1,0.3134806000161916,None,,,,0,0,0,0,0,25,25,25,133.14504590001889,,,,,,,,,,,,,,,,133.12921680009458,133.14504590001889,133.84454240009654,133.84454240009654,134.34397000004537,134.32791580003686,134.3284347000299,134.34397000004537,134.49399580003228,134.69377170002554,134.69377170002554,135.0117578000063,space,1,0.3134806000161916,None,135.01673710008617,135.5266072000377,136.52575100003742,,,,,,,,,,,,,,,,,,012,001,2025-05-01_04h36.23.516,Cued GoNogo Task,2024.2.4,59.98098599438131,2025-05-01 04h36.29.132987 +0200,
block/CondBlock1.xlsx,You are about to start a block of type 1 trials.,26,26,0,NoGo,NoGo,0.2,0.2,0.05,none,blue,vertical,space,1.8704408999765292,None,None,1,,,,,,0,0,0,0,0,26,26,26,136.54214910010342,,,,,,,,,,,,,,,,136.52605650003534,136.54214910010342,137.22520620003343,137.24210610007867,137.72464530006982,137.70866600004956,137.7093262000708,137.72464530006982,137.92433380009606,138.12413580005523,138.12413580005523,138.60795710003003,None,1,,,138.6102755999891,139.12355110002682,140.10675010003615,138.62378910009284,138.62378910009284,140.12258830002975,,,,,,,,,,,,,,,012,001,2025-05-01_04h36.23.516,Cued GoNogo Task,2024.2.4,59.98098599438131,2025-05-01 04h36.29.132987 +0200,
block/CondBlock1.xlsx,You are about to start a block of type 1 trials.,27,27,0,Go,Go,0.29,0.05,0.2,space,green,horizontal,space,1.8704408999765292,None,space,1,0.1529185000108555,None,,,,0,0,0,0,0,27,27,27,140.12258830002975,,,,,,,,,,,,,,,,140.10699790006038,140.12258830002975,140.8220054000849,140.8220054000849,141.32152220001444,141.305473000044,141.3059951000614,141.32152220001444,141.6213491000235,141.804710800061,141.804710800061,141.97233820008114,space,1,0.1529185000108555,None,141.97634769999422,142.48724420007784,143.4703632000601,,,143.48651800001971,,,,,,,,,,,,,,,012,001,2025-05-01_04h36.23.516,Cued GoNogo Task,2024.2.4,59.98098599438131,2025-05-01 04h36.29.132987 +0200,
block/CondBlock1.xlsx,You are about to start a block of type 1 trials.,28,28,0,Go,Go,0.24,0.2,0.05,space,blue,vertical,space,1.8704408999765292,None,space,1,0.12780649994965643,None,,,,0,0,0,0,0,28,28,28,143.48651800001971,,,,,,,,,,,,,,,,143.47058030008338,143.48651800001971,144.1858487999998,144.1858487999998,144.6856196000008,144.6695597000653,144.67025369999465,144.6856196000008,144.93535760010127,145.11861270002555,145.11861270002555,145.25254960008897,space,1,0.12780649994965643,None,145.2556273000082,145.76797680009622,146.75104170001578,,,146.767285500071,,,,,,,,,,,,,,,012,001,2025-05-01_04h36.23.516,Cued GoNogo Task,2024.2.4,59.98098599438131,2025-05-01 04h36.29.132987 +0200,
block/CondBlock1.xlsx,You are about to start a block of type 1 trials.,29,29,0,Go,Go,0.15,0.05,0.2,space,green,horizontal,space,1.8704408999765292,None,space,1,0.14604040002450347,None,,,,0,0,0,0,0,29,29,29,146.767285500071,,,,,,,,,,,,,,,,146.7512670001015,146.767285500071,147.46655200002715,147.46655200002715,147.96618770004716,147.95045010000467,147.95130390010308,147.96618770004716,148.11617470008787,148.3158420000691,148.3158420000691,148.4667806000216,space,1,0.14604040002450347,None,148.47066660004202,148.98201909998897,149.96539730008226,,,149.98113349999767,,,,,,,,,,,,,,,012,001,2025-05-01_04h36.23.516,Cued GoNogo Task,2024.2.4,59.98098599438131,2025-05-01 04h36.29.132987 +0200,
block/CondBlock1.xlsx,You are about to start a block of type 1 trials.,30,30,0,Go,Go,0.23,0.2,0.05,space,green,vertical,space,1.8704408999765292,None,space,1,0.2184906000038609,None,,,,0,0,0,0,0,30,30,30,149.98113349999767,,,,,,,,,,,,,,,,149.96576880000066,149.98113349999767,150.68054730002768,150.68054730002768,151.18010520003736,151.16411520005204,151.16467460000422,151.18010520003736,151.41332030005287,151.59638810006436,151.59638810006436,151.83090930001345,space,1,0.2184906000038609,None,151.83480489999056,152.3459212000016,153.32922300009523,,,153.3450465000933,,,,,,,,,,,,,,,012,001,2025-05-01_04h36.23.516,Cued GoNogo Task,2024.2.4,59.98098599438131,2025-05-01 04h36.29.132987 +0200,
block/CondBlock1.xlsx,You are about to start a block of type 1 trials.,31,31,0,Go,Go,0.28,0.2,0.05,space,green,vertical,space,1.8704408999765292,None,space,1,0.12466730002779514,None,,,,0,0,0,0,0,31,31,31,153.3450465000933,,,,,,,,,,,,,,,,153.32965239998884,153.3450465000933,154.0443082000129,154.0443082000129,154.5441850000061,154.5282294000499,154.52889519999735,154.5441850000061,154.8271372000454,155.01020460005384,155.01020460005384,155.14471690007485,space,1,0.12466730002779514,None,155.1489164000377,155.65979490010068,156.64306460006628,,,156.65898150007706,,,,,,,,,,,,,,,012,001,2025-05-01_04h36.23.516,Cued GoNogo Task,2024.2.4,59.98098599438131,2025-05-01 04h36.29.132987 +0200,
block/CondBlock1.xlsx,You are about to start a block of type 1 trials.,32,32,0,Go,Go,0.19,0.2,0.05,space,green,vertical,space,1.8704408999765292,None,space,1,0.13431770005263388,None,,,,0,0,0,0,0,32,32,32,156.65898150007706,,,,,,,,,,,,,,,,156.64334360009525,156.65898150007706,157.35840800008737,157.35840800008737,157.85793150006793,157.84165270009544,157.84213700005785,157.85793150006793,158.05770130001474,158.2410099999979,158.2410099999979,158.39213620009832,space,1,0.13431770005263388,None,158.39609510009177,158.9072081000777,159.89039230009075,,,159.9063551001018,,,,,,,,,,,,,,,012,001,2025-05-01_04h36.23.516,Cued GoNogo Task,2024.2.4,59.98098599438131,2025-05-01 04h36.29.132987 +0200,
block/CondBlock1.xlsx,You are about to start a block of type 1 trials.,33,33,0,Go,Go,0.12,0.2,0.05,space,green,vertical,space,1.8704408999765292,None,space,1,0.16807829996105283,None,,,,0,0,0,0,0,33,33,33,159.9063551001018,,,,,,,,,,,,,,,,159.890725400066,159.9063551001018,160.60586780006997,160.60586780006997,161.10529970005155,161.0895775000099,161.0902919000946,161.10529970005155,161.23858820006717,161.42177110002376,161.42177110002376,161.60609320004005,space,1,0.16807829996105283,None,161.60971330001485,162.12132340006065,163.10460300010163,,,163.12052400002722,,,,,,,,,,,,,,,012,001,2025-05-01_04h36.23.516,Cued GoNogo Task,2024.2.4,59.98098599438131,2025-05-01 04h36.29.132987 +0200,
block/CondBlock1.xlsx,You are about to start a block of type 1 trials.,34,34,0,Go,Go,0.18,0.2,0.05,space,blue,vertical,space,1.8704408999765292,None,space,1,0.10487590008415282,None,,,,0,0,0,0,0,34,34,34,163.12052400002722,,,,,,,,,,,,,,,,163.1049730000086,163.12052400002722,163.81977870000992,163.81977870000992,164.31954930000938,164.30353780009318,164.30395359999966,164.31954930000938,164.5025099000195,164.68574930005707,164.68574930005707,164.80374430003576,space,1,0.10487590008415282,None,164.80793890007772,165.31842840008903,166.30192630004603,,,166.31762039999012,,,,,,,,,,,,,,,012,001,2025-05-01_04h36.23.516,Cued GoNogo Task,2024.2.4,59.98098599438131,2025-05-01 04h36.29.132987 +0200,
block/CondBlock1.xlsx,You are about to start a block of type 1 trials.,35,35,0,Go,Go,0.21,0.2,0.05,space,blue,vertical,space,1.8704408999765292,None,space,1,0.1293133000144735,None,,,,0,0,0,0,0,35,35,35,166.31762039999012,,,,,,,,,,,,,,,,166.30215100001078,166.31762039999012,167.01718700001948,167.01718700001948,167.51678010006435,167.50060890009627,167.5011508000316,167.51678010006435,167.73317600006703,167.91649229999166,167.91649229999166,168.0513153000502,space,1,0.1293133000144735,None,168.05568890005816,168.56593140005134,169.54922470008023,,,169.56511740002315,,,,,,,,,,,,,,,012,001,2025-05-01_04h36.23.516,Cued GoNogo Task,2024.2.4,59.98098599438131,2025-05-01 04h36.29.132987 +0200,
block/CondBlock1.xlsx,You are about to start a block of type 1 trials.,36,36,0,Go,Go,0.2,0.2,0.05,space,green,vertical,space,1.8704408999765292,None,space,1,0.14622170000802726,None,,,,0,0,0,0,0,36,36,36,169.56511740002315,,,,,,,,,,,,,,,,169.5495443000691,169.56511740002315,170.26437760004774,170.26437760004774,170.76409070007503,170.74787320010364,170.74829950009007,170.76409070007503,170.96379270008765,171.16360980004538,171.16360980004538,171.31491390010342,space,1,0.14622170000802726,None,171.31809580000117,171.82986100006383,172.81308079999872,,,172.8289187999908,,,,,,,,,,,,,,,012,001,2025-05-01_04h36.23.516,Cued GoNogo Task,2024.2.4,59.98098599438131,2025-05-01 04h36.29.132987 +0200,
block/CondBlock1.xlsx,You are about to start a block of type 1 trials.,37,37,0,Go,Go,0.45,0.05,0.2,space,blue,horizontal,space,1.8704408999765292,None,space,1,0.18360839993692935,None,,,,0,0,0,0,0,37,37,37,172.8289187999908,,,,,,,,,,,,,,,,172.81350610009395,172.8289187999908,173.52827610005625,173.52827610005625,174.02795710007194,174.01220920006745,174.01339540001936,174.02795710007194,174.47765350004192,174.67763540009037,174.67763540009037,174.87873520003632,space,1,0.18360839993692935,None,174.88259779999498,175.3935507000424,176.3771076000994,,,176.39293680002447,,,,,,,,,,,,,,,012,001,2025-05-01_04h36.23.516,Cued GoNogo Task,2024.2.4,59.98098599438131,2025-05-01 04h36.29.132987 +0200,
block/CondBlock1.xlsx,You are about to start a block of type 1 trials.,38,38,0,Go,Go,0.13,0.05,0.2,space,blue,horizontal,space,1.8704408999765292,None,space,1,0.2177864999976009,None,,,,0,0,0,0,0,38,38,38,176.39293680002447,,,,,,,,,,,,,,,,176.37737550004385,176.39293680002447,177.09216280002147,177.09216280002147,177.59168760001194,177.57585350004956,177.57656840002164,177.59168760001194,177.72482250002213,177.9081887000939,177.9081887000939,178.14248000003863,space,1,0.2177864999976009,None,178.14607850008179,178.65760050003882,179.64069700008258,,,179.65669309999794,,,,,,,,,,,,,,,012,001,2025-05-01_04h36.23.516,Cued GoNogo Task,2024.2.4,59.98098599438131,2025-05-01 04h36.29.132987 +0200,
block/CondBlock1.xlsx,You are about to start a block of type 1 trials.,39,39,0,Go,Go,0.46,0.2,0.05,space,blue,vertical,space,1.8704408999765292,None,space,1,0.10042740008793771,None,,,,0,0,0,0,0,39,39,39,179.65669309999794,,,,,,,,,,,,,,,,179.64094270009082,179.65669309999794,180.35596380010247,180.35596380010247,180.8557782000862,180.8398112000432,180.84050900000148,180.8557782000862,181.3221909001004,181.50528700009454,181.50528700009454,181.6226021000184,space,1,0.10042740008793771,None,181.62617290008347,182.13802469999064,183.1211885000812,,,183.13724440010265,,,,,,,,,,,,,,,012,001,2025-05-01_04h36.23.516,Cued GoNogo Task,2024.2.4,59.98098599438131,2025-05-01 04h36.29.132987 +0200,
block/CondBlock1.xlsx,You are about to start a block of type 1 trials.,40,40,0,Go,Go,0.29,0.2,0.05,space,blue,vertical,space,1.8704408999765292,None,space,1,0.18681490002200007,None,,,,0,0,0,0,0,40,40,40,183.13724440010265,,,,,,,,,,,,,,,,183.12139940005727,183.13724440010265,183.83669190004002,183.83669190004002,184.3361497001024,184.32031970005482,184.32099850010127,184.3361497001024,184.63589230005164,184.8192031000508,184.8192031000508,185.0201998000266,space,1,0.18681490002200007,None,185.0242869000649,185.53539860004093,186.5186270000413,,,186.53431900008582,,,,,,,,,,,,,,,012,001,2025-05-01_04h36.23.516,Cued GoNogo Task,2024.2.4,59.98098599438131,2025-05-01 04h36.29.132987 +0200,
block/CondBlock1.xlsx,You are about to start a block of type 1 trials.,41,41,0,Go,Go,0.22,0.2,0.05,space,blue,vertical,space,1.8704408999765292,None,space,1,0.2164629000471905,None,,,,0,0,0,0,0,41,41,41,186.53431900008582,,,,,,,,,,,,,,,,186.51896250003483,186.53431900008582,187.23397980001755,187.23397980001755,187.73348310007714,187.71745210001245,187.71805890009273,187.73348310007714,187.9665392000461,188.14964050007984,188.14964050007984,188.36839250009507,space,1,0.2164629000471905,None,188.37188039999455,188.88243860006332,189.86559940001462,,,189.88155140005983,,,,,,,,,,,,,,,012,001,2025-05-01_04h36.23.516,Cued GoNogo Task,2024.2.4,59.98098599438131,2025-05-01 04h36.29.132987 +0200,
block/CondBlock1.xlsx,You are about to start a block of type 1 trials.,42,42,0,Go,Go,0.49,0.2,0.05,space,blue,vertical,space,1.8704408999765292,None,space,1,0.11383859999477863,None,,,,0,0,0,0,0,42,42,42,189.88155140005983,,,,,,,,,,,,,,,,189.86586480005644,189.88155140005983,190.58090930001345,190.58090930001345,191.08065320004243,191.06496970006265,191.06569640000816,191.08065320004243,191.58017770003062,191.76348090008833,191.76348090008833,191.88080680009443,space,1,0.11383859999477863,None,191.88388219999615,192.3961959000444,193.3792333001038,,,193.3953918000916,,,,,,,,,,,,,,,012,001,2025-05-01_04h36.23.516,Cued GoNogo Task,2024.2.4,59.98098599438131,2025-05-01 04h36.29.132987 +0200,
block/CondBlock1.xlsx,You are about to start a block of type 1 trials.,43,43,0,Go,Go,0.2,0.2,0.05,space,blue,vertical,space,1.8704408999765292,None,space,1,0.2118573000188917,None,,,,0,0,0,0,0,43,43,43,193.3953918000916,,,,,,,,,,,,,,,,193.379467700026,193.3953918000916,194.09482690005098,194.09482690005098,194.59448520001024,194.5787276000483,194.57945290009957,194.59448520001024,194.7942308000056,194.99417429999448,194.99417429999448,195.21151230006944,space,1,0.2118573000188917,None,195.21458999998868,195.72684890008532,196.70993110002019,,,196.7261323001003,,,,,,,,,,,,,,,012,001,2025-05-01_04h36.23.516,Cued GoNogo Task,2024.2.4,59.98098599438131,2025-05-01 04h36.29.132987 +0200,
block/CondBlock1.xlsx,You are about to start a block of type 1 trials.,44,44,0,Go,Go,0.3,0.05,0.2,space,blue,horizontal,space,1.8704408999765292,None,space,1,0.19011540000792593,None,,,,0,0,0,0,0,44,44,44,196.7261323001003,,,,,,,,,,,,,,,,196.7101908000186,196.7261323001003,197.42548460001126,197.42548460001126,197.9248744000215,197.90908560005482,197.90968190005515,197.9248744000215,198.22478490008507,198.4245999000268,198.4245999000268,198.62569140002597,space,1,0.19011540000792593,None,198.62992259999737,199.14066870009992,200.12407930009067,,,200.13990840001497,,,,,,,,,,,,,,,012,001,2025-05-01_04h36.23.516,Cued GoNogo Task,2024.2.4,59.98098599438131,2025-05-01 04h36.29.132987 +0200,
block/CondBlock1.xlsx,You are about to start a block of type 1 trials.,45,45,0,NoGo,NoGo,0.21,0.05,0.2,none,green,horizontal,space,1.8704408999765292,None,None,1,,,,,,0,0,0,0,0,45,45,45,200.13990840001497,,,,,,,,,,,,,,,,200.12438280007336,200.13990840001497,200.8392019000603,200.8392019000603,201.3389615000924,201.32264890009537,201.3231950000627,201.3389615000924,201.555331200012,201.73857990000397,201.73857990000397,202.22212190006394,None,1,,,202.22465450002346,202.73774590005632,203.72091330005787,202.238037000061,202.238037000061,203.73693000001367,,,,,,,,,,,,,,,012,001,2025-05-01_04h36.23.516,Cued GoNogo Task,2024.2.4,59.98098599438131,2025-05-01 04h36.29.132987 +0200,
block/CondBlock1.xlsx,You are about to start a block of type 1 trials.,46,46,0,NoGo,NoGo,0.45,0.05,0.2,none,blue,horizontal,space,1.8704408999765292,None,None,1,,,,,,0,0,0,0,0,46,46,46,203.73693000001367,,,,,,,,,,,,,,,,203.72115860006306,203.73693000001367,204.43641940003727,204.43641940003727,204.93590310006402,204.91960230004042,204.9201297000982,204.93590310006402,205.38555470004212,205.58553949999623,205.58553949999623,206.06947230000515,None,1,,,206.07004340004642,206.58459460001905,207.56782050000038,206.08491209999193,206.08491209999193,207.58358770003542,,,,,,,,,,,,,,,012,001,2025-05-01_04h36.23.516,Cued GoNogo Task,2024.2.4,59.98098599438131,2025-05-01 04h36.29.132987 +0200,
block/CondBlock1.xlsx,You are about to start a block of type 1 trials.,47,47,0,Go,Go,0.24,0.05,0.2,space,green,horizontal,space,1.8704408999765292,None,space,1,0.24596059997566044,None,,,,0,0,0,0,0,47,47,47,207.58358770003542,,,,,,,,,,,,,,,,207.56809870002326,207.58358770003542,208.28328650002368,208.28328650002368,208.7826823000796,208.7668894000817,208.76761520002037,208.7826823000796,209.0325196000049,209.2157330000773,209.2157330000773,209.46659289998934,space,1,0.24596059997566044,None,209.47056040004827,209.982021600008,210.98104020010214,,,,,,,,,,,,,,,,,,012,001,2025-05-01_04h36.23.516,Cued GoNogo Task,2024.2.4,59.98098599438131,2025-05-01 04h36.29.132987 +0200,
block/CondBlock1.xlsx,You are about to start a block of type 1 trials.,48,48,0,NoGo,NoGo,0.15,0.2,0.05,none,blue,vertical,space,1.8704408999765292,None,None,1,,,,,,0,0,0,0,0,48,48,48,210.9974787000101,,,,,,,,,,,,,,,,210.98127840005327,210.9974787000101,211.6803923000116,211.69711509998888,212.17989200004376,212.1639686000999,212.16455600003246,212.17989200004376,212.32984750007745,212.5296922000125,212.5296922000125,213.01301130000502,None,1,,,213.01468490005936,213.51214610005263,214.49597510008607,213.0295230000047,213.0295230000047,214.51138490007725,,,,,,,,,,,,,,,012,001,2025-05-01_04h36.23.516,Cued GoNogo Task,2024.2.4,59.98098599438131,2025-05-01 04h36.29.132987 +0200,
block/CondBlock1.xlsx,You are about to start a block of type 1 trials.,49,49,0,Go,Go,0.12,0.05,0.2,space,blue,horizontal,space,1.8704408999765292,None,space,1,0.2669702999992296,None,,,,0,0,0,0,0,49,49,49,214.51138490007725,,,,,,,,,,,,,,,,214.49639370001387,214.52803700009827,215.2274536000332,215.2274536000332,215.72723140008748,215.71164790005423,215.71267450007144,215.72723140008748,215.86030320008285,216.04354230000172,216.04354230000172,216.31295050005428,space,1,0.2669702999992296,None,216.31688689999282,216.82621359999757,217.80955660005566,,,217.82546379999258,,,,,,,,,,,,,,,012,001,2025-05-01_04h36.23.516,Cued GoNogo Task,2024.2.4,59.98098599438131,2025-05-01 04h36.29.132987 +0200,
block/CondBlock1.xlsx,You are about to start a block of type 1 trials.,50,50,0,Go,Go,0.22,0.2,0.05,space,green,vertical,space,1.8704408999765292,None,space,1,0.14940410002600402,None,,,,0,0,0,0,0,50,50,50,217.82546379999258,,,,,,,,,,,,,,,,217.80985690001398,217.82546379999258,218.5248101000907,218.5248101000907,219.0242701000534,219.00909460010007,219.00977970007807,219.0242701000534,219.25771900010295,219.4406614000909,219.4406614000909,219.5923265001038,space,1,0.14940410002600402,None,219.59650670003612,220.1067766000051,221.08990230003837,,,221.10606890008785,,,,,,,,,,,,,,,012,001,2025-05-01_04h36.23.516,Cued GoNogo Task,2024.2.4,59.98098599438131,2025-05-01 04h36.29.132987 +0200,
block/CondBlock1.xlsx,You are about to start a block of type 1 trials.,51,51,0,Go,Go,0.28,0.05,0.2,space,green,horizontal,space,1.8704408999765292,None,space,1,0.1793321999721229,None,,,,0,0,0,0,0,51,51,51,221.10606890008785,,,,,,,,,,,,,,,,221.0901439000154,221.10606890008785,221.80534100008663,221.80534100008663,222.30491060006898,222.28919300006237,222.29000230005477,222.30491060006898,222.58804050006438,222.77112560009118,222.77112560009118,222.95565260003787,space,1,0.1793321999721229,None,222.95931860001292,223.47073330008425,224.45399350009393,,,224.46989370009396,,,,,,,,,,,,,,,012,001,2025-05-01_04h36.23.516,Cued GoNogo Task,2024.2.4,59.98098599438131,2025-05-01 04h36.29.132987 +0200,
block/CondBlock1.xlsx,You are about to start a block of type 1 trials.,52,52,0,Go,Go,0.23,0.2,0.05,space,green,vertical,space,1.8704408999765292,None,space,1,0.22562689997721463,None,,,,0,0,0,0,0,52,52,52,224.46989370009396,,,,,,,,,,,,,,,,224.45434510009363,224.46989370009396,225.1690241000615,225.1690241000615,225.66878700000234,225.65344850008842,225.6542956000194,225.66878700000234,225.90210440009832,226.08526710001752,226.08526710001752,226.3194502000697,space,1,0.22562689997721463,None,226.32288520003203,226.83454950002488,227.81803349999245,,,227.83361470000818,,,,,,,,,,,,,,,012,001,2025-05-01_04h36.23.516,Cued GoNogo Task,2024.2.4,59.98098599438131,2025-05-01 04h36.29.132987 +0200,
block/CondBlock1.xlsx,You are about to start a block of type 1 trials.,53,53,0,Go,Go,0.22,0.05,0.2,space,green,horizontal,space,1.8704408999765292,None,space,1,0.17340899992268533,None,,,,0,0,0,0,0,53,53,53,227.83361470000818,,,,,,,,,,,,,,,,227.81835120008327,227.83361470000818,228.53336390003096,228.53336390003096,229.03274970001075,229.0167898000218,229.01749410002958,229.03274970001075,229.26592250005342,229.4492409999948,229.4492409999948,229.6335512000369,space,1,0.17340899992268533,None,229.63747509999666,230.1485537000699,231.13188690005336,,,231.14776760002133,,,,,,,,,,,,,,,012,001,2025-05-01_04h36.23.516,Cued GoNogo Task,2024.2.4,59.98098599438131,2025-05-01 04h36.29.132987 +0200,
block/CondBlock1.xlsx,You are about to start a block of type 1 trials.,54,54,0,NoGo,NoGo,0.14,0.05,0.2,none,green,horizontal,space,1.8704408999765292,None,None,1,,,,,,0,0,0,0,0,54,54,54,231.14776760002133,,,,,,,,,,,,,,,,231.1321978000924,231.14776760002133,231.84731790004298,231.84731790004298,232.34657050005626,232.3307565000141,232.33150339999702,232.34657050005626,232.4965269000968,232.67979630001355,232.67979630001355,233.16354890004732,None,1,,,233.1663305000402,233.67911060003098,234.6780857000267,233.17929380002897,233.17929380002897,,,,,,,,,,,,,,,,012,001,2025-05-01_04h36.23.516,Cued GoNogo Task,2024.2.4,59.98098599438131,2025-05-01 04h36.29.132987 +0200,
block/CondBlock1.xlsx,You are about to start a block of type 1 trials.,55,55,0,Go,Go,0.15,0.2,0.05,space,blue,vertical,space,1.8704408999765292,None,space,1,0.18662559997756034,None,,,,0,0,0,0,0,55,55,55,234.69470930006355,,,,,,,,,,,,,,,,234.67829050007276,234.69470930006355,235.3774333000183,235.3942476999946,235.87702830007765,235.86147260002326,235.862174400012,235.87702830007765,236.02718560001813,236.22681730007753,236.22681730007753,236.42767260002438,space,1,0.18662559997756034,None,236.43096290004905,236.94287510006689,237.926226300071,,,237.94214920001104,,,,,,,,,,,,,,,012,001,2025-05-01_04h36.23.516,Cued GoNogo Task,2024.2.4,59.98098599438131,2025-05-01 04h36.29.132987 +0200,
block/CondBlock1.xlsx,You are about to start a block of type 1 trials.,56,56,0,Go,Go,0.47,0.2,0.05,space,blue,vertical,space,1.8704408999765292,None,space,1,0.1345649000722915,None,,,,0,0,0,0,0,56,56,56,237.94214920001104,,,,,,,,,,,,,,,,237.92646890005562,237.94214920001104,238.6415642000502,238.6415642000502,239.1413502000505,239.12524770002346,239.12594810000155,239.1413502000505,239.62401940010022,239.8073221000377,239.8073221000377,239.95863090001512,space,1,0.1345649000722915,None,239.96321439999156,240.47334120003507,241.4566255999962,,,241.4724961000029,,,,,,,,,,,,,,,012,001,2025-05-01_04h36.23.516,Cued GoNogo Task,2024.2.4,59.98098599438131,2025-05-01 04h36.29.132987 +0200,
block/CondBlock1.xlsx,You are about to start a block of type 1 trials.,57,57,0,NoGo,NoGo,0.42,0.2,0.05,none,green,vertical,space,1.8704408999765292,None,None,1,,,,,,0,0,0,0,0,57,57,57,241.4724961000029,,,,,,,,,,,,,,,,241.45691390009597,241.4724961000029,242.1719172000885,242.1719172000885,242.6715948000783,242.65561290003825,242.65635730000213,242.6715948000783,243.10462470003404,243.28767840005457,243.28767840005457,243.7711478000274,None,1,,,243.77324830007274,244.27026800008025,245.25351190008223,243.7873009000905,243.7873009000905,245.26937490003183,,,,,,,,,,,,,,,012,001,2025-05-01_04h36.23.516,Cued GoNogo Task,2024.2.4,59.98098599438131,2025-05-01 04h36.29.132987 +0200,
block/CondBlock1.xlsx,You are about to start a block of type 1 trials.,58,58,0,Go,Go,0.22,0.05,0.2,space,green,horizontal,space,1.8704408999765292,None,space,1,0.16864299995359033,None,,,,0,0,0,0,0,58,58,58,245.26937490003183,,,,,,,,,,,,,,,,245.25384200003464,245.28612400009297,245.9855213999981,245.9855213999981,246.48526149999816,246.46976340003312,246.47074810008053,246.48526149999816,246.71824020007625,246.90156700008083,246.90156700008083,247.08613350009546,space,1,0.16864299995359033,None,247.090336900088,247.6008707000874,248.58429530006833,,,248.60011690005194,,,,,,,,,,,,,,,012,001,2025-05-01_04h36.23.516,Cued GoNogo Task,2024.2.4,59.98098599438131,2025-05-01 04h36.29.132987 +0200,
block/CondBlock1.xlsx,You are about to start a block of type 1 trials.,59,59,0,Go,Go,0.3,0.2,0.05,space,blue,vertical,space,1.8704408999765292,None,space,1,0.2033435000339523,None,,,,0,0,0,0,0,59,59,59,248.60011690005194,,,,,,,,,,,,,,,,248.58461300004274,248.60011690005194,249.29939619998913,249.29939619998913,249.79904680000618,249.78331560001243,249.78399630007334,249.79904680000618,250.0987851000391,250.2986543000443,250.2986543000443,250.51693280006293,space,1,0.2033435000339523,None,250.5214559000451,251.0312531000236,252.01440880005248,,,252.03046260005794,,,,,,,,,,,,,,,012,001,2025-05-01_04h36.23.516,Cued GoNogo Task,2024.2.4,59.98098599438131,2025-05-01 04h36.29.132987 +0200,
block/CondBlock1.xlsx,You are about to start a block of type 1 trials.,60,60,0,NoGo,NoGo,0.24,0.2,0.05,none,blue,vertical,space,1.8704408999765292,None,None,1,,,,,,0,0,0,0,0,60,60,60,252.03046260005794,,,,,,,,,,,,,,,,252.01460840005893,252.03046260005794,252.72999850008637,252.72999850008637,253.22953470004722,253.21348020003643,253.21403650008142,253.22953470004722,253.47936960007064,253.66245689999778,253.66245689999778,254.1462351999944,None,1,,,254.14827020000666,254.66183830006048,255.64496190007776,254.16208050004207,254.16208050004207,255.6608282000525,,,,,,,,,,,,,,,012,001,2025-05-01_04h36.23.516,Cued GoNogo Task,2024.2.4,59.98098599438131,2025-05-01 04h36.29.132987 +0200,
block/CondBlock1.xlsx,You are about to start a block of type 1 trials.,61,61,0,NoGo,NoGo,0.1,0.2,0.05,none,green,vertical,space,1.8704408999765292,None,None,1,,,,,,0,0,0,0,0,61,61,61,255.6608282000525,,,,,,,,,,,,,,,,255.6452609000262,255.6608282000525,256.3604883000953,256.3604883000953,256.8601641000714,256.84372140001506,256.8442687999923,256.8601641000714,256.959831800079,257.1596336000366,257.1596336000366,257.64307370001916,None,1,,,257.643443100038,258.1421199000906,259.1255048000021,257.6592388000572,257.6592388000572,259.14129080006387,,,,,,,,,,,,,,,012,001,2025-05-01_04h36.23.516,Cued GoNogo Task,2024.2.4,59.98098599438131,2025-05-01 04h36.29.132987 +0200,
block/CondBlock1.xlsx,You are about to start a block of type 1 trials.,62,62,0,Go,Go,0.45,0.05,0.2,space,blue,horizontal,space,1.8704408999765292,None,space,1,0.18372799991630018,None,,,,0,0,0,0,0,62,62,62,259.14129080006387,,,,,,,,,,,,,,,,259.12584830005653,259.15795070002787,259.8573981000809,259.8573981000809,260.35684120003134,260.34090310009196,260.3414815000724,260.35684120003134,260.80666280002333,261.00640930002555,261.00640930002555,261.2071014000103,space,1,0.18372799991630018,None,261.2105015000561,261.722551700077,262.7058406000724,,,262.72171459998935,,,,,,,,,,,,,,,012,001,2025-05-01_04h36.23.516,Cued GoNogo Task,2024.2.4,59.98098599438131,2025-05-01 04h36.29.132987 +0200,
block/CondBlock1.xlsx,You are about to start a block of type 1 trials.,63,63,0,Go,Go,0.1,0.05,0.2,space,green,horizontal,space,1.8704408999765292,None,space,1,0.23438529996201396,None,,,,0,0,0,0,0,63,63,63,262.72171459998935,,,,,,,,,,,,,,,,262.70619230007287,262.72171459998935,263.4210903000785,263.4210903000785,263.9206903000595,263.9048457000172,263.9055297001032,263.9206903000595,264.020627800026,264.22043059999123,264.22043059999123,264.47134650009684,space,1,0.23438529996201396,None,264.4753413000144,264.9867064000573,265.9701453000307,,,265.9858179000439,,,,,,,,,,,,,,,012,001,2025-05-01_04h36.23.516,Cued GoNogo Task,2024.2.4,59.98098599438131,2025-05-01 04h36.29.132987 +0200,
block/CondBlock1.xlsx,You are about to start a block of type 1 trials.,64,64,0,Go,Go,0.19,0.05,0.2,space,blue,horizontal,space,1.8704408999765292,None,space,1,0.11096030008047819,None,,,,0,0,0,0,0,64,64,64,265.9858179000439,,,,,,,,,,,,,,,,265.9704895000905,265.9858179000439,266.68500880000647,266.68500880000647,267.1848079999909,267.16888060001656,267.1696034000488,267.1848079999909,267.3846366000362,267.5677069000667,267.5677069000667,267.68531259999145,space,1,0.11096030008047819,None,267.6891455000732,268.2004775000969,269.1837630000664,,,269.19972000003327,,,,,,,,,,,,,,,012,001,2025-05-01_04h36.23.516,Cued GoNogo Task,2024.2.4,59.98098599438131,2025-05-01 04h36.29.132987 +0200,
block/CondBlock1.xlsx,You are about to start a block of type 1 trials.,65,65,0,Go,Go,0.21,0.2,0.05,space,blue,vertical,space,1.8704408999765292,None,space,1,0.11180610000155866,None,,,,0,0,0,0,0,65,65,65,269.19972000003327,,,,,,,,,,,,,,,,269.18399160006084,269.19972000003327,269.89905310003087,269.89905310003087,270.39862500003073,270.3828808000544,270.383547800011,270.39862500003073,270.6152138999896,270.7983741000062,270.7983741000062,270.91603240009863,space,1,0.11180610000155866,None,270.91964460001327,271.43121360009536,272.414306199993,,,272.4305481000338,,,,,,,,,,,,,,,012,001,2025-05-01_04h36.23.516,Cued GoNogo Task,2024.2.4,59.98098599438131,2025-05-01 04h36.29.132987 +0200,
block/CondBlock1.xlsx,You are about to start a block of type 1 trials.,66,66,0,Go,Go,0.18,0.05,0.2,space,blue,horizontal,space,1.8704408999765292,None,space,1,0.17017129994928837,None,,,,0,0,0,0,0,66,66,66,272.4305481000338,,,,,,,,,,,,,,,,272.41448900010437,272.4305481000338,273.1298909999896,273.1298909999896,273.6293787000468,273.61378460004926,273.614544400014,273.6293787000468,273.8124354000902,273.9960690001026,273.9960690001026,274.18025550001767,space,1,0.17017129994928837,None,274.1856532000238,274.69515530008357,275.6785771000432,,,275.6945335000055,,,,,,,,,,,,,,,012,001,2025-05-01_04h36.23.516,Cued GoNogo Task,2024.2.4,59.98098599438131,2025-05-01 04h36.29.132987 +0200,
block/CondBlock1.xlsx,You are about to start a block of type 1 trials.,67,67,0,Go,Go,0.29,0.2,0.05,space,green,vertical,space,1.8704408999765292,None,space,1,0.1504149999236688,None,,,,0,0,0,0,0,67,67,67,275.6945335000055,,,,,,,,,,,,,,,,275.6789059001021,275.6945335000055,276.39391220000107,276.39391220000107,276.8934897000436,276.87750050006434,276.878131100093,276.8934897000436,277.19315180007834,277.3763425000943,277.3763425000943,277.5447521000169,space,1,0.1504149999236688,None,277.54892269999254,278.05927850003354,279.0423940999899,,,279.05816210003104,,,,,,,,,,,,,,,012,001,2025-05-01_04h36.23.516,Cued GoNogo Task,2024.2.4,59.98098599438131,2025-05-01 04h36.29.132987 +0200,
block/CondBlock1.xlsx,You are about to start a block of type 1 trials.,68,68,0,NoGo,NoGo,0.24,0.2,0.05,none,blue,vertical,space,1.8704408999765292,None,None,1,,,,,,0,0,0,0,0,68,68,68,279.05816210003104,,,,,,,,,,,,,,,,279.0426440000301,279.05816210003104,279.7577644000994,279.7577644000994,280.25732490001246,280.24159830005374,280.24236900010146,280.25732490001246,280.507202400011,280.69027320004534,280.69027320004534,281.1742460000096,None,1,,,281.1769295000704,281.6895030000014,282.6726093000034,281.1898655000841,281.1898655000841,282.68856870010495,,,,,,,,,,,,,,,012,001,2025-05-01_04h36.23.516,Cued GoNogo Task,2024.2.4,59.98098599438131,2025-05-01 04h36.29.132987 +0200,
block/CondBlock1.xlsx,You are about to start a block of type 1 trials.,69,69,0,Go,Go,0.27,0.05,0.2,space,green,horizontal,space,1.8704408999765292,None,space,1,0.22852910007350147,None,,,,0,0,0,0,0,69,69,69,282.68856870010495,,,,,,,,,,,,,,,,282.67288010008633,282.68856870010495,283.38804180000443,283.38804180000443,283.8875431000488,283.87181550008245,283.8725977001013,283.8875431000488,284.17107020004187,284.35371090006083,284.35371090006083,284.58801649999805,space,1,0.22852910007350147,None,284.5913990000263,285.10336290008854,286.08665260009,,,286.102547800052,,,,,,,,,,,,,,,012,001,2025-05-01_04h36.23.516,Cued GoNogo Task,2024.2.4,59.98098599438131,2025-05-01 04h36.29.132987 +0200,
block/CondBlock1.xlsx,You are about to start a block of type 1 trials.,70,70,0,Go,Go,0.25,0.2,0.05,space,green,vertical,space,1.8704408999765292,None,space,1,0.11818640003912151,None,,,,0,0,0,0,0,70,70,70,286.102547800052,,,,,,,,,,,,,,,,286.08696500002407,286.102547800052,286.8018092000857,286.8018092000857,287.3017608000664,287.2854561000131,287.28617010009475,287.3017608000664,287.5513234999962,287.7512942000758,287.7512942000758,287.88531630008947,space,1,0.11818640003912151,None,287.8883296001004,288.40069010003936,289.3839527000673,,,289.3998752000043,,,,,,,,,,,,,,,012,001,2025-05-01_04h36.23.516,Cued GoNogo Task,2024.2.4,59.98098599438131,2025-05-01 04h36.29.132987 +0200,
block/CondBlock1.xlsx,You are about to start a block of type 1 trials.,71,71,0,Go,Go,0.28,0.05,0.2,space,green,horizontal,space,1.8704408999765292,None,space,1,0.15719689999241382,None,,,,0,0,0,0,0,71,71,71,289.3998752000043,,,,,,,,,,,,,,,,289.3842220000224,289.3998752000043,290.0990725000156,290.0990725000156,290.59877949999645,290.58299230004195,290.5839988000225,290.59877949999645,290.8817657000618,291.06517310009804,291.06517310009804,291.2326153999893,space,1,0.15719689999241382,None,291.23631950002164,291.7479167000856,292.73128850001376,,,292.7470581000671,,,,,,,,,,,,,,,012,001,2025-05-01_04h36.23.516,Cued GoNogo Task,2024.2.4,59.98098599438131,2025-05-01 04h36.29.132987 +0200,
block/CondBlock1.xlsx,You are about to start a block of type 1 trials.,72,72,0,Go,Go,0.14,0.05,0.2,space,blue,horizontal,space,1.8704408999765292,None,space,1,0.15881850000005215,None,,,,0,0,0,0,0,72,72,72,292.7470581000671,,,,,,,,,,,,,,,,292.7316543000052,292.7470581000671,293.44647020008415,293.44647020008415,293.9459632000653,293.9300508000888,293.93056910007726,293.9459632000653,294.0959614000749,294.2790853000479,294.2790853000479,294.4464982000645,space,1,0.15881850000005215,None,294.44976069999393,294.9619404000696,295.9450685000047,,,295.9611359999981,,,,,,,,,,,,,,,012,001,2025-05-01_04h36.23.516,Cued GoNogo Task,2024.2.4,59.98098599438131,2025-05-01 04h36.29.132987 +0200,
block/CondBlock1.xlsx,You are about to start a block of type 1 trials.,73,73,0,Go,Go,0.11,0.05,0.2,space,blue,horizontal,space,1.8704408999765292,None,space,1,0.16183290001936257,None,,,,0,0,0,0,0,73,73,73,295.9611359999981,,,,,,,,,,,,,,,,295.94537910004146,295.9611359999981,296.66047930007335,296.66047930007335,297.1602629000554,297.1446125000948,297.1454386000987,297.1602629000554,297.2766437000828,297.45977590000257,297.45977590000257,297.627420200035,space,1,0.16183290001936257,None,297.6304938000394,298.1426139000105,299.1258266000077,,,299.14181890001055,,,,,,,,,,,,,,,012,001,2025-05-01_04h36.23.516,Cued GoNogo Task,2024.2.4,59.98098599438131,2025-05-01 04h36.29.132987 +0200,
block/CondBlock1.xlsx,You are about to start a block of type 1 trials.,74,74,0,Go,Go,0.22,0.2,0.05,space,blue,vertical,space,1.8704408999765292,None,space,1,0.13614389998838305,None,,,,0,0,0,0,0,74,74,74,299.14181890001055,,,,,,,,,,,,,,,,299.1260708000045,299.14181890001055,299.8411199999973,299.8411199999973,300.34075460000895,300.3246446000412,300.3251976000611,300.34075460000895,300.57400700007565,300.757400100003,300.757400100003,300.90829440008383,space,1,0.13614389998838305,None,300.9124537000898,301.4232380000176,302.4063781000441,,,302.42260290007107,,,,,,,,,,,,,,,012,001,2025-05-01_04h36.23.516,Cued GoNogo Task,2024.2.4,59.98098599438131,2025-05-01 04h36.29.132987 +0200,
block/CondBlock1.xlsx,You are about to start a block of type 1 trials.,75,75,0,Go,Go,0.26,0.05,0.2,space,blue,horizontal,space,1.8704408999765292,None,space,1,0.4154929999494925,None,,,,0,0,0,0,0,75,75,75,302.42260290007107,,,,,,,,,,,,,,,,302.4065967000788,302.42260290007107,303.1220136000775,303.1220136000775,303.62140360008925,303.60599489999004,303.60712729999796,303.62140360008925,303.88791160006076,304.07108240004163,304.07108240004163,304.48932070005685,space,1,0.4154929999494925,None,304.4933264000574,305.0036587000359,305.98695900000166,,,306.00288859999273,,,,,,,,,,,,,,,012,001,2025-05-01_04h36.23.516,Cued GoNogo Task,2024.2.4,59.98098599438131,2025-05-01 04h36.29.132987 +0200,
block/CondBlock1.xlsx,You are about to start a block of type 1 trials.,76,76,0,Go,Go,0.14,0.2,0.05,space,green,vertical,space,1.8704408999765292,None,space,1,0.16661449999082834,None,,,,0,0,0,0,0,76,76,76,306.00288859999273,,,,,,,,,,,,,,,,305.98720740003046,306.00288859999273,306.70222990005277,306.70222990005277,307.2017832000274,307.18585150002036,307.18648800009396,307.2017832000274,307.35170830006246,307.5349315000931,307.5349315000931,307.70321470010094,space,1,0.16661449999082834,None,307.70676570001524,308.21771630004514,309.20089680003,,,309.21678560005967,,,,,,,,,,,,,,,012,001,2025-05-01_04h36.23.516,Cued GoNogo Task,2024.2.4,59.98098599438131,2025-05-01 04h36.29.132987 +0200,
block/CondBlock1.xlsx,You are about to start a block of type 1 trials.,77,77,0,Go,Go,0.18,0.05,0.2,space,green,horizontal,space,1.8704408999765292,None,space,1,0.12782120006158948,None,,,,0,0,0,0,0,77,77,77,309.21678560005967,,,,,,,,,,,,,,,,309.20117230003234,309.21678560005967,309.91629780002404,309.91629780002404,310.4157815000508,310.4002608000301,310.4010802000994,310.4157815000508,310.5991346000228,310.79884820000734,310.79884820000734,310.93317319999915,space,1,0.12782120006158948,None,310.93733710004017,311.4484234000556,312.4475906000007,,,,,,,,,,,,,,,,,,012,001,2025-05-01_04h36.23.516,Cued GoNogo Task,2024.2.4,59.98098599438131,2025-05-01 04h36.29.132987 +0200,
block/CondBlock1.xlsx,You are about to start a block of type 1 trials.,78,78,0,NoGo,NoGo,0.27,0.05,0.2,none,blue,horizontal,space,1.8704408999765292,None,None,1,,,,,,0,0,0,0,0,78,78,78,312.46416400000453,,,,,,,,,,,,,,,,312.447810200043,312.46416400000453,313.1469261000166,313.1635184000479,313.64655850001145,313.63084660004824,313.6315231000772,313.64655850001145,313.92961440002546,314.11278100009076,314.11278100009076,314.5963354000123,None,1,,,314.59856010007206,315.1119995000772,316.0951513000764,314.6125949000707,314.6125949000707,316.11119580001105,,,,,,,,,,,,,,,012,001,2025-05-01_04h36.23.516,Cued GoNogo Task,2024.2.4,59.98098599438131,2025-05-01 04h36.29.132987 +0200,
block/CondBlock1.xlsx,You are about to start a block of type 1 trials.,79,79,0,NoGo,NoGo,0.26,0.2,0.05,none,blue,vertical,space,1.8704408999765292,None,None,1,,,,,,0,0,0,0,0,79,79,79,316.11119580001105,,,,,,,,,,,,,,,,316.09540960006416,316.11119580001105,316.81053230003454,316.81053230003454,317.3100982999895,317.29460330004804,317.29539680003654,317.3100982999895,317.5766909000231,317.7598027000204,317.7598027000204,318.2432638000464,None,1,,,318.2436113000149,318.75897560000885,319.7420538000297,318.25938669999596,318.25938669999596,319.75808590010274,,,,,,,,,,,,,,,012,001,2025-05-01_04h36.23.516,Cued GoNogo Task,2024.2.4,59.98098599438131,2025-05-01 04h36.29.132987 +0200,
block/CondBlock1.xlsx,You are about to start a block of type 1 trials.,80,80,0,Go,Go,0.22,0.2,0.05,space,green,vertical,space,1.8704408999765292,None,space,1,0.1685002000303939,None,,,,0,0,0,0,0,80,80,80,319.75808590010274,,,,,,,,,,,,,,,,319.7422782999929,319.75808590010274,320.45763369998895,320.45763369998895,320.95719770004507,320.94112000009045,320.9417320000939,320.95719770004507,321.19029749999754,321.3736717000138,321.3736717000138,321.558306000079,space,1,0.1685002000303939,None,321.56251770001836,322.0728631000966,323.05633580009453,,,323.07210660004057,,,,,,,,,,,,,,,012,001,2025-05-01_04h36.23.516,Cued GoNogo Task,2024.2.4,59.98098599438131,2025-05-01 04h36.29.132987 +0200,
block/CondBlock1.xlsx,You are about to start a block of type 1 trials.,81,81,0,Go,Go,0.5,0.2,0.05,space,green,vertical,space,1.8704408999765292,None,space,1,0.1636163000948727,None,,,,0,0,0,0,0,81,81,81,323.07210660004057,,,,,,,,,,,,,,,,323.05667670001276,323.07210660004057,323.77143820002675,323.77143820002675,324.2710956000956,324.25527790002525,324.2559094000608,324.2710956000956,324.77072050003335,324.970633000019,324.970633000019,325.1381560000591,space,1,0.1636163000948727,None,325.1414757000748,325.6533455000026,326.6366171000991,,,326.65256120008416,,,,,,,,,,,,,,,012,001,2025-05-01_04h36.23.516,Cued GoNogo Task,2024.2.4,59.98098599438131,2025-05-01 04h36.29.132987 +0200,
block/CondBlock1.xlsx,You are about to start a block of type 1 trials.,82,82,0,Go,Go,0.43,0.05,0.2,space,green,horizontal,space,1.8704408999765292,None,space,1,0.24368280009366572,None,,,,0,0,0,0,0,82,82,82,326.65256120008416,,,,,,,,,,,,,,,,326.63690879999194,326.65256120008416,327.3518386000069,327.3518386000069,327.8513307000976,327.83568490005564,327.8364922000328,327.8513307000976,328.28454450005665,328.4676360000158,328.4676360000158,328.7186026000418,space,1,0.24368280009366572,None,328.72335390001535,329.2337590000825,330.2170101000229,,,330.2329272000352,,,,,,,,,,,,,,,012,001,2025-05-01_04h36.23.516,Cued GoNogo Task,2024.2.4,59.98098599438131,2025-05-01 04h36.29.132987 +0200,
block/CondBlock1.xlsx,You are about to start a block of type 1 trials.,83,83,0,Go,Go,0.25,0.2,0.05,space,green,vertical,space,1.8704408999765292,None,space,1,0.10875420004595071,None,,,,0,0,0,0,0,83,83,83,330.2329272000352,,,,,,,,,,,,,,,,330.21728159999475,330.2329272000352,330.9324727000203,330.9324727000203,331.4320210000733,331.41590820008423,331.4165879000211,331.4320210000733,331.6817968999967,331.8813647000352,331.8813647000352,331.9994035999989,space,1,0.10875420004595071,None,332.00321590004023,332.5143956000684,333.4976026000222,,,333.5135154000018,,,,,,,,,,,,,,,012,001,2025-05-01_04h36.23.516,Cued GoNogo Task,2024.2.4,59.98098599438131,2025-05-01 04h36.29.132987 +0200,
block/CondBlock1.xlsx,You are about to start a block of type 1 trials.,84,84,0,NoGo,NoGo,0.14,0.2,0.05,none,green,vertical,space,1.8704408999765292,None,None,1,,,,,,0,0,0,0,0,84,84,84,333.5135154000018,,,,,,,,,,,,,,,,333.497889899998,333.5135154000018,334.2130316999974,334.2130316999974,334.7124084000243,334.69641330000013,334.6969443000853,334.7124084000243,334.86237200000323,335.04571010009386,335.04571010009386,335.52942949999124,None,1,,,335.5328358000843,336.0447955999989,337.04452430002857,335.5451814000262,335.5451814000262,,,,,,,,,,,,,,,,012,001,2025-05-01_04h36.23.516,Cued GoNogo Task,2024.2.4,59.98098599438131,2025-05-01 04h36.29.132987 +0200,
block/CondBlock1.xlsx,You are about to start a block of type 1 trials.,85,85,0,Go,Go,0.2,0.05,0.2,space,blue,horizontal,space,1.8704408999765292,None,space,1,0.10705610003788024,None,,,,0,0,0,0,0,85,85,85,337.0603671000572,,,,,,,,,,,,,,,,337.04473260010127,337.0603671000572,337.74343240004964,337.76012980006635,338.2430049000541,338.2272777000908,338.227995900088,338.2430049000541,338.4426535000093,338.64256690000184,338.64256690000184,338.7609222000465,space,1,0.10705610003788024,None,338.76617160008755,339.2756365000969,340.2589476000285,,,340.27463660005014,,,,,,,,,,,,,,,012,001,2025-05-01_04h36.23.516,Cued GoNogo Task,2024.2.4,59.98098599438131,2025-05-01 04h36.29.132987 +0200,
block/CondBlock1.xlsx,You are about to start a block of type 1 trials.,86,86,0,Go,Go,0.16,0.2,0.05,space,blue,vertical,space,1.8704408999765292,None,space,1,0.1829374999506399,None,,,,0,0,0,0,0,86,86,86,340.27463660005014,,,,,,,,,,,,,,,,340.2592949999962,340.27463660005014,340.9741452001035,340.9741452001035,341.47355630004313,341.45767020003404,341.4583603000501,341.47355630004313,341.64017650007736,341.8234687000513,341.8234687000513,342.0085634000134,space,1,0.1829374999506399,None,342.01286560005974,342.5227196000051,343.50601680006366,,,343.52192249998916,,,,,,,,,,,,,,,012,001,2025-05-01_04h36.23.516,Cued GoNogo Task,2024.2.4,59.98098599438131,2025-05-01 04h36.29.132987 +0200,
block/CondBlock1.xlsx,You are about to start a block of type 1 trials.,87,87,0,Go,Go,0.41,0.2,0.05,space,green,vertical,space,1.8704408999765292,None,space,1,0.16508469998370856,None,,,,0,0,0,0,0,87,87,87,343.52192249998916,,,,,,,,,,,,,,,,343.5062687000027,343.52192249998916,344.2213437000755,344.2213437000755,344.7209073000122,344.70523890003096,344.7059825999895,344.7209073000122,345.1374112000922,345.3205128000118,345.3205128000118,345.4887405000627,space,1,0.16508469998370856,None,345.4931979000103,346.0033886000747,346.9863824000349,,,347.00241690000985,,,,,,,,,,,,,,,012,001,2025-05-01_04h36.23.516,Cued GoNogo Task,2024.2.4,59.98098599438131,2025-05-01 04h36.29.132987 +0200,
block/CondBlock1.xlsx,You are about to start a block of type 1 trials.,88,88,0,NoGo,NoGo,0.15,0.2,0.05,none,green,vertical,space,1.8704408999765292,None,None,1,,,,,,0,0,0,0,0,88,88,88,347.00241690000985,,,,,,,,,,,,,,,,346.98659400001634,347.00241690000985,347.7018706999952,347.7018706999952,348.2013556000311,348.1857741000131,348.18656900001224,348.2013556000311,348.35138460004237,348.5511019000551,348.5511019000551,349.03516240010504,None,1,,,349.03871310001705,349.5505352000473,350.5495027001016,349.05066320009064,349.05066320009064,,,,,,,,,,,,,,,,012,001,2025-05-01_04h36.23.516,Cued GoNogo Task,2024.2.4,59.98098599438131,2025-05-01 04h36.29.132987 +0200,
block/CondBlock1.xlsx,You are about to start a block of type 1 trials.,89,89,0,Go,Go,0.24,0.05,0.2,space,blue,horizontal,space,1.8704408999765292,None,space,1,0.15218980005010962,None,,,,0,0,0,0,0,89,89,89,350.5661861000117,,,,,,,,,,,,,,,,350.54972370003816,350.5661861000117,351.2489930000156,351.26568030007184,351.7485388000496,351.7325764000416,351.7333005000837,351.7485388000496,351.99829850008246,352.18141750001814,352.18141750001814,352.3491830000421,space,1,0.15218980005010962,None,352.3526044000173,352.8643119999906,353.8476707000518,,,353.86341150000226,,,,,,,,,,,,,,,012,001,2025-05-01_04h36.23.516,Cued GoNogo Task,2024.2.4,59.98098599438131,2025-05-01 04h36.29.132987 +0200,
block/CondBlock1.xlsx,You are about to start a block of type 1 trials.,90,90,0,Go,Go,0.25,0.2,0.05,space,blue,vertical,space,1.8704408999765292,None,space,1,0.26278610003646463,None,,,,0,0,0,0,0,90,90,90,353.86341150000226,,,,,,,,,,,,,,,,353.84797360002995,353.86341150000226,354.5629715000978,354.5629715000978,355.06239870004356,355.04642340005375,355.04705440008547,355.06239870004356,355.31224920006935,355.5120637000073,355.5120637000073,355.78002510010265,space,1,0.26278610003646463,None,355.7842184000183,356.29492620006204,357.27824530005455,,,357.2938875000691,,,,,,,,,,,,,,,012,001,2025-05-01_04h36.23.516,Cued GoNogo Task,2024.2.4,59.98098599438131,2025-05-01 04h36.29.132987 +0200,
block/CondBlock1.xlsx,You are about to start a block of type 1 trials.,91,91,0,Go,Go,0.26,0.05,0.2,space,green,horizontal,space,1.8704408999765292,None,space,1,0.19974159996490926,None,,,,0,0,0,0,0,91,91,91,357.2938875000691,,,,,,,,,,,,,,,,357.2785205000546,357.2938875000691,357.9934446000261,357.9934446000261,358.49298070010263,358.4770290000597,358.47763300000224,358.49298070010263,358.75934560003225,358.9426199001027,358.9426199001027,359.1451219000155,space,1,0.19974159996490926,None,359.1496146999998,359.65881310007535,360.64217980008107,,,360.65795670007356,,,,,,,,,,,,,,,012,001,2025-05-01_04h36.23.516,Cued GoNogo Task,2024.2.4,59.98098599438131,2025-05-01 04h36.29.132987 +0200,
block/CondBlock1.xlsx,You are about to start a block of type 1 trials.,92,92,0,NoGo,NoGo,0.44,0.2,0.05,none,blue,vertical,space,1.8704408999765292,None,None,1,,,,,,0,0,0,0,0,92,92,92,360.65795670007356,,,,,,,,,,,,,,,,360.64250330009963,360.65795670007356,361.3572925000917,361.3572925000917,361.85701939999126,361.84085420006886,361.8414805000648,361.85701939999126,362.30639270006213,362.48972230008803,362.48972230008803,362.97326850006357,None,1,,,362.97562110004947,363.4887783000013,364.47244270006195,362.98944100004155,362.98944100004155,364.4879944000859,,,,,,,,,,,,,,,012,001,2025-05-01_04h36.23.516,Cued GoNogo Task,2024.2.4,59.98098599438131,2025-05-01 04h36.29.132987 +0200,
block/CondBlock1.xlsx,You are about to start a block of type 1 trials.,93,93,0,Go,Go,0.13,0.2,0.05,space,green,vertical,space,1.8704408999765292,None,space,1,0.15400490001775324,None,,,,0,0,0,0,0,93,93,93,364.4879944000859,,,,,,,,,,,,,,,,364.4727781000547,364.4879944000859,365.18739900004584,365.18739900004584,365.68701090000104,365.671277299989,365.67193440010305,365.68701090000104,365.8203472000314,366.00338300003204,366.00338300003204,366.17094500001986,space,1,0.15400490001775324,None,366.17407970002387,366.6861668000929,367.66951320006046,,,367.68538380006794,,,,,,,,,,,,,,,012,001,2025-05-01_04h36.23.516,Cued GoNogo Task,2024.2.4,59.98098599438131,2025-05-01 04h36.29.132987 +0200,
block/CondBlock1.xlsx,You are about to start a block of type 1 trials.,94,94,0,Go,Go,0.44,0.05,0.2,space,blue,horizontal,space,1.8704408999765292,None,space,1,0.20942890003789216,None,,,,0,0,0,0,0,94,94,94,367.68538380006794,,,,,,,,,,,,,,,,367.6697661000071,367.68538380006794,368.38498880004045,368.38498880004045,368.88452700001653,368.86873850005213,368.8694998000283,368.88452700001653,369.3340865999926,369.5173350000987,369.5173350000987,369.7347127000103,space,1,0.20942890003789216,None,369.73920090007596,370.2499620000599,371.2333272000542,,,371.24917090008967,,,,,,,,,,,,,,,012,001,2025-05-01_04h36.23.516,Cued GoNogo Task,2024.2.4,59.98098599438131,2025-05-01 04h36.29.132987 +0200,
block/CondBlock1.xlsx,You are about to start a block of type 1 trials.,95,95,0,Go,Go,0.15,0.2,0.05,space,green,vertical,space,1.8704408999765292,None,space,1,0.1199158999370411,None,,,,0,0,0,0,0,95,95,95,371.24917090008967,,,,,,,,,,,,,,,,371.23358810006175,371.24917090008967,371.9486274000956,371.9486274000956,372.448245900101,372.43216550000943,372.4328527000034,372.448245900101,372.5980901001021,372.79820060008205,372.79820060008205,372.93280970002525,space,1,0.1199158999370411,None,372.93782480002847,373.4471986000426,374.4309094999917,,,374.44645160005894,,,,,,,,,,,,,,,012,001,2025-05-01_04h36.23.516,Cued GoNogo Task,2024.2.4,59.98098599438131,2025-05-01 04h36.29.132987 +0200,
block/CondBlock1.xlsx,You are about to start a block of type 1 trials.,96,96,0,Go,Go,0.49,0.2,0.05,space,green,vertical,space,1.8704408999765292,None,space,1,0.1577623999910429,None,,,,0,0,0,0,0,96,96,96,374.44645160005894,,,,,,,,,,,,,,,,374.43124589999206,374.44645160005894,375.14595230005216,375.14595230005216,375.64555880008265,375.6295919000404,375.6303640000988,375.64555880008265,376.1449092000257,376.32833030004986,376.32833030004986,376.4959875000641,space,1,0.1577623999910429,None,376.50048740010243,377.01129380008206,377.9944364000112,,,378.0102619000245,,,,,,,,,,,,,,,012,001,2025-05-01_04h36.23.516,Cued GoNogo Task,2024.2.4,59.98098599438131,2025-05-01 04h36.29.132987 +0200,
block/CondBlock1.xlsx,You are about to start a block of type 1 trials.,97,97,0,Go,Go,0.11,0.2,0.05,space,blue,vertical,space,1.8704408999765292,None,space,1,0.18527990009170026,None,,,,0,0,0,0,0,97,97,97,378.0102619000245,,,,,,,,,,,,,,,,377.99468540004455,378.0102619000245,378.70986780000385,378.70986780000385,379.20922170009,379.1933054000838,379.1939897000557,379.20922170009,379.3257250000024,379.5090707000345,379.5090707000345,379.70976670004893,space,1,0.18527990009170026,None,379.7132808000315,380.22511560004205,381.20872059999965,,,381.2242549000075,,,,,,,,,,,,,,,012,001,2025-05-01_04h36.23.516,Cued GoNogo Task,2024.2.4,59.98098599438131,2025-05-01 04h36.29.132987 +0200,
block/CondBlock1.xlsx,You are about to start a block of type 1 trials.,98,98,0,Go,Go,0.26,0.05,0.2,space,green,horizontal,space,1.8704408999765292,None,space,1,0.2532712999964133,None,,,,0,0,0,0,0,98,98,98,381.2242549000075,,,,,,,,,,,,,,,,381.2091846000403,381.2242549000075,381.9236290000845,381.9236290000845,382.4231584999943,382.4078991001006,382.4088772000978,382.4231584999943,382.68981580005493,382.87288460007403,382.87288460007403,383.14085620001424,space,1,0.2532712999964133,None,383.14511530008167,383.6556043000892,384.6388517000014,,,384.6547647000989,,,,,,,,,,,,,,,012,001,2025-05-01_04h36.23.516,Cued GoNogo Task,2024.2.4,59.98098599438131,2025-05-01 04h36.29.132987 +0200,
block/CondBlock1.xlsx,You are about to start a block of type 1 trials.,99,99,0,Go,Go,0.28,0.05,0.2,space,green,horizontal,space,1.8704408999765292,None,space,1,0.13385340000968426,None,,,,0,0,0,0,0,99,99,99,384.6547647000989,,,,,,,,,,,,,,,,384.6391708001029,384.6547647000989,385.35420790000353,385.35420790000353,385.853778299992,385.8379002000438,385.83859890000895,385.853778299992,386.13684980000835,386.31990570004564,386.31990570004564,386.47078660002444,space,1,0.13385340000968426,None,386.4737640999956,386.9695257000858,387.9524410000304,,,387.9684331000317,,,,,,,,,,,,,,,012,001,2025-05-01_04h36.23.516,Cued GoNogo Task,2024.2.4,59.98098599438131,2025-05-01 04h36.29.132987 +0200,
block/CondBlock1.xlsx,You are about to start a block of type 1 trials.,0,0,0,,,,,,,,,space,1.8704408999765292,None,,,,,space,0.3096159999258816,None,0,0,0,0,,,,,,,,,,,,,,,,,,,,,,,,,,,,,,,,,,,,,,,,,,,387.9657309000613,387.98522380006034,387.98522380006034,388.30284920008853,space,0.3096159999258816,None,,,,,,,,012,001,2025-05-01_04h36.23.516,Cued GoNogo Task,2024.2.4,59.98098599438131,2025-05-01 04h36.29.132987 +0200,
block/CondBlock2.xlsx,You are about to start a block of type 2 trials.,0,0,0,Go,Go,0.18,0.05,0.2,space,green,horizontal,space,259.7600029000314,None,space,1,0.29584550007712096,None,,,,0,1,1,1,0,0,0,0,648.1093603000045,,,,,,,,,388.30725890002213,388.31834270001855,388.31834270001855,648.0888139000162,space,259.7600029000314,None,648.1073282000143,648.1093603000045,648.8040792000247,648.8205880000023,649.3036346000154,649.2879379000515,649.28836710006,649.3036346000154,649.486693300074,649.6700919000432,649.6700919000432,649.9707844000077,space,1,0.29584550007712096,None,649.9740521000931,650.4860173000488,651.4688331000507,,,651.4850180000067,,,,,,,,,,,,,,,012,001,2025-05-01_04h36.23.516,Cued GoNogo Task,2024.2.4,59.98098599438131,2025-05-01 04h36.29.132987 +0200,
block/CondBlock2.xlsx,You are about to start a block of type 2 trials.,1,1,0,Go,Go,0.2,0.2,0.05,space,green,vertical,space,259.7600029000314,None,space,1,0.1296466999920085,None,,,,0,1,1,1,0,1,1,1,651.4850180000067,,,,,,,,,,,,,,,,651.4689970000181,651.4850180000067,652.184415500029,652.184415500029,652.6841286000563,652.6677933000028,652.6681577001,652.6841286000563,652.883943199995,653.0840625000419,653.0840625000419,653.2179799000733,space,1,0.1296466999920085,None,653.2210104000987,653.7331758000655,654.716611300013,,,654.7323301000288,,,,,,,,,,,,,,,012,001,2025-05-01_04h36.23.516,Cued GoNogo Task,2024.2.4,59.98098599438131,2025-05-01 04h36.29.132987 +0200,
block/CondBlock2.xlsx,You are about to start a block of type 2 trials.,2,2,0,Go,Go,0.22,0.05,0.2,space,blue,horizontal,space,259.7600029000314,None,space,1,0.3218877000035718,None,,,,0,1,1,1,0,2,2,2,654.7323301000288,,,,,,,,,,,,,,,,654.7168395000044,654.7323301000288,655.4317876000423,655.4317876000423,655.9313550000079,655.9153796000173,655.9158660999965,655.9313550000079,656.1645506999921,656.3477895000251,656.3477895000251,656.681806000066,space,1,0.3218877000035718,None,656.6844306000276,657.1970488000661,658.1805548000848,,,658.1964750000043,,,,,,,,,,,,,,,012,001,2025-05-01_04h36.23.516,Cued GoNogo Task,2024.2.4,59.98098599438131,2025-05-01 04h36.29.132987 +0200,
block/CondBlock2.xlsx,You are about to start a block of type 2 trials.,3,3,0,Go,Go,0.14,0.05,0.2,space,green,horizontal,space,259.7600029000314,None,space,1,0.1579138000961393,None,,,,0,1,1,1,0,3,3,3,658.1964750000043,,,,,,,,,,,,,,,,658.1808193000033,658.1964750000043,658.8956483000657,658.8956483000657,659.3954012000468,659.3788770000683,659.3794191000052,659.3954012000468,659.5450525000924,659.7282954000402,659.7282954000402,659.8957956000231,space,1,0.1579138000961393,None,659.8989181000507,660.4110481000971,661.3942469999893,,,661.4102030000649,,,,,,,,,,,,,,,012,001,2025-05-01_04h36.23.516,Cued GoNogo Task,2024.2.4,59.98098599438131,2025-05-01 04h36.29.132987 +0200,
block/CondBlock2.xlsx,You are about to start a block of type 2 trials.,4,4,0,Go,Go,0.26,0.05,0.2,space,blue,horizontal,space,259.7600029000314,None,space,1,0.13977959996555,None,,,,0,1,1,1,0,4,4,4,661.4102030000649,,,,,,,,,,,,,,,,661.3944534000475,661.4102030000649,662.1097277000081,662.1097277000081,662.6091813000385,662.5932467000093,662.5938268000027,662.6091813000385,662.8757343000034,663.0591001000721,663.0591001000721,663.2098990000086,space,1,0.13977959996555,None,663.2126990000252,663.7253275000257,664.7083823001012,,,664.7241709000664,,,,,,,,,,,,,,,012,001,2025-05-01_04h36.23.516,Cued GoNogo Task,2024.2.4,59.98098599438131,2025-05-01 04h36.29.132987 +0200,
block/CondBlock2.xlsx,You are about to start a block of type 2 trials.,5,5,0,Go,Go,0.1,0.05,0.2,space,blue,horizontal,space,259.7600029000314,None,space,1,0.1351300000678748,None,,,,0,1,1,1,0,5,5,5,664.7241709000664,,,,,,,,,,,,,,,,664.7085622000741,664.7241709000664,665.4235457000323,665.4235457000323,665.9233835000778,665.9070201000432,665.9075198000064,665.9233835000778,666.0231515000341,666.2230213000439,666.2230213000439,666.3737866000738,space,1,0.1351300000678748,None,666.3766155000776,666.8892941999948,667.8723120000213,,,667.888319700025,,,,,,,,,,,,,,,012,001,2025-05-01_04h36.23.516,Cued GoNogo Task,2024.2.4,59.98098599438131,2025-05-01 04h36.29.132987 +0200,
block/CondBlock2.xlsx,You are about to start a block of type 2 trials.,6,6,0,NoGo,NoGo,0.3,0.2,0.05,none,green,vertical,space,259.7600029000314,None,None,1,,,,,,0,1,1,1,0,6,6,6,667.888319700025,,,,,,,,,,,,,,,,667.8726660000393,667.888319700025,668.587695299997,668.587695299997,669.0873557000887,669.0710269000847,669.071412099991,669.0873557000887,669.3872540000593,669.5868152000476,669.5868152000476,670.0705189000582,None,1,,,670.0720776000526,670.5694150000345,671.5522648000624,670.0864570999984,670.0864570999984,671.5685690999962,,,,,,,,,,,,,,,012,001,2025-05-01_04h36.23.516,Cued GoNogo Task,2024.2.4,59.98098599438131,2025-05-01 04h36.29.132987 +0200,
block/CondBlock2.xlsx,You are about to start a block of type 2 trials.,7,7,0,NoGo,NoGo,0.14,0.05,0.2,none,blue,horizontal,space,259.7600029000314,None,None,1,,,,,,0,1,1,1,0,7,7,7,671.5685690999962,,,,,,,,,,,,,,,,671.5524265000131,671.5852641999954,672.2846651000436,672.2846651000436,672.7844634000212,672.7683526000474,672.7688760000747,672.7844634000212,672.9340414000908,673.1172853000462,673.1172853000462,673.6007366999984,None,1,,,673.6010266999947,674.099879299989,675.0829047000734,673.6169116999954,673.6169116999954,675.0990281000268,,,,,,,,,,,,,,,012,001,2025-05-01_04h36.23.516,Cued GoNogo Task,2024.2.4,59.98098599438131,2025-05-01 04h36.29.132987 +0200,
block/CondBlock2.xlsx,You are about to start a block of type 2 trials.,8,8,0,Go,Go,0.13,0.2,0.05,space,blue,vertical,space,259.7600029000314,None,space,1,0.11920539999846369,None,,,,0,1,1,1,0,8,8,8,675.0990281000268,,,,,,,,,,,,,,,,675.08310300007,675.1156711000949,675.8150480000768,675.8150480000768,676.3147014999995,676.2984967000084,676.2990880000871,676.3147014999995,676.447959400015,676.6311183000216,676.6311183000216,676.765335300006,space,1,0.11920539999846369,None,676.7680600000313,677.2807566000847,678.279785700026,,,,,,,,,,,,,,,,,,012,001,2025-05-01_04h36.23.516,Cued GoNogo Task,2024.2.4,59.98098599438131,2025-05-01 04h36.29.132987 +0200,
block/CondBlock2.xlsx,You are about to start a block of type 2 trials.,9,9,0,Go,Go,0.43,0.2,0.05,space,green,vertical,space,259.7600029000314,None,space,1,0.08743830001913011,None,,,,0,1,1,1,0,9,9,9,678.2962583000772,,,,,,,,,,,,,,,,678.2800281000091,678.2962583000772,678.9790986001026,678.9957355000079,679.4786444000201,679.4624113000464,679.4627783000469,679.4786444000201,679.9116629000055,680.094910499989,680.094910499989,680.195633700001,space,1,0.08743830001913011,None,680.1986527000554,680.7110831000609,681.6941557000391,,,681.7102432000684,,,,,,,,,,,,,,,012,001,2025-05-01_04h36.23.516,Cued GoNogo Task,2024.2.4,59.98098599438131,2025-05-01 04h36.29.132987 +0200,
block/CondBlock2.xlsx,You are about to start a block of type 2 trials.,10,10,0,Go,Go,0.14,0.2,0.05,space,green,vertical,space,259.7600029000314,None,space,1,0.15549390006344765,None,,,,0,1,1,1,0,10,10,10,681.7102432000684,,,,,,,,,,,,,,,,681.6943405000493,681.7102432000684,682.4097982000094,682.4097982000094,682.909217700013,682.8931384000462,682.8935532000614,682.909217700013,683.0591385000153,683.2424949000124,683.2424949000124,683.4096579999896,space,1,0.15549390006344765,None,683.412356600049,683.9250156000489,684.9082199000986,,,684.9243043001043,,,,,,,,,,,,,,,012,001,2025-05-01_04h36.23.516,Cued GoNogo Task,2024.2.4,59.98098599438131,2025-05-01 04h36.29.132987 +0200,
block/CondBlock2.xlsx,You are about to start a block of type 2 trials.,11,11,0,Go,Go,0.27,0.2,0.05,space,green,vertical,space,259.7600029000314,None,space,1,0.1449371000053361,None,,,,0,1,1,1,0,11,11,11,684.9243043001043,,,,,,,,,,,,,,,,684.9084281000542,684.9243043001043,685.6236398000037,685.6236398000037,686.1232788000489,686.1070736000547,686.1074587000767,686.1232788000489,686.406338000088,686.589695700095,686.589695700095,686.7402950000251,space,1,0.1449371000053361,None,686.7429266000399,687.2557967000175,688.2386231001001,,,688.2548141001025,,,,,,,,,,,,,,,012,001,2025-05-01_04h36.23.516,Cued GoNogo Task,2024.2.4,59.98098599438131,2025-05-01 04h36.29.132987 +0200,
block/CondBlock2.xlsx,You are about to start a block of type 2 trials.,12,12,0,Go,Go,0.3,0.05,0.2,space,green,horizontal,space,259.7600029000314,None,space,1,0.16452850005589426,None,,,,0,1,1,1,0,12,12,12,688.2548141001025,,,,,,,,,,,,,,,,688.2387871000683,688.2548141001025,688.954259900027,688.954259900027,689.4541164000984,689.4377639000304,689.4381880000001,689.4541164000984,689.7537688000593,689.9534711000742,689.9534711000742,690.1207963000052,space,1,0.16452850005589426,None,690.1236667000921,690.6362102000276,691.6194533000235,,,691.6353995000245,,,,,,,,,,,,,,,012,001,2025-05-01_04h36.23.516,Cued GoNogo Task,2024.2.4,59.98098599438131,2025-05-01 04h36.29.132987 +0200,
block/CondBlock2.xlsx,You are about to start a block of type 2 trials.,13,13,0,Go,Go,0.18,0.2,0.05,space,blue,vertical,space,259.7600029000314,None,space,1,0.14906840003095567,None,,,,0,1,1,1,0,13,13,13,691.6353995000245,,,,,,,,,,,,,,,,691.619617999997,691.6353995000245,692.3348925000755,692.3348925000755,692.8346206001006,692.8181887000101,692.8185579000274,692.8346206001006,693.0175846000202,693.2007253000047,693.2007253000047,693.3519001000095,space,1,0.14906840003095567,None,693.3550712000579,693.8669084000867,694.849791900022,,,694.8663423000835,,,,,,,,,,,,,,,012,001,2025-05-01_04h36.23.516,Cued GoNogo Task,2024.2.4,59.98098599438131,2025-05-01 04h36.29.132987 +0200,
block/CondBlock2.xlsx,You are about to start a block of type 2 trials.,14,14,0,Go,Go,0.13,0.2,0.05,space,green,vertical,space,259.7600029000314,None,space,1,0.14533740002661943,None,,,,0,1,1,1,0,14,14,14,694.8663423000835,,,,,,,,,,,,,,,,694.8499579000054,694.8663423000835,695.5655039000558,695.5655039000558,696.0650602000533,696.0487851999933,696.0491965000983,696.0650602000533,696.1982999000465,696.3814403000288,696.3814403000288,696.532243099995,space,1,0.14533740002661943,None,696.5348665000638,697.0476778000593,698.0306916000554,,,698.0467654000968,,,,,,,,,,,,,,,012,001,2025-05-01_04h36.23.516,Cued GoNogo Task,2024.2.4,59.98098599438131,2025-05-01 04h36.29.132987 +0200,
block/CondBlock2.xlsx,You are about to start a block of type 2 trials.,15,15,0,Go,Go,0.18,0.2,0.05,space,blue,vertical,space,259.7600029000314,None,space,1,0.1614640000043437,None,,,,0,1,1,1,0,15,15,15,698.0467654000968,,,,,,,,,,,,,,,,698.030910700094,698.0467654000968,698.7461957000196,698.7461957000196,699.2457659000065,699.229585400084,699.2299737000139,699.2457659000065,699.429231600021,699.612380500068,699.612380500068,699.779496400035,space,1,0.1614640000043437,None,699.782409000094,700.2949564000592,701.2780949000735,,,701.2942883000942,,,,,,,,,,,,,,,012,001,2025-05-01_04h36.23.516,Cued GoNogo Task,2024.2.4,59.98098599438131,2025-05-01 04h36.29.132987 +0200,
block/CondBlock2.xlsx,You are about to start a block of type 2 trials.,16,16,0,Go,Go,0.24,0.2,0.05,space,green,vertical,space,259.7600029000314,None,space,1,0.1358345999615267,None,,,,0,1,1,1,0,16,16,16,701.2942883000942,,,,,,,,,,,,,,,,701.2783565000864,701.2942883000942,701.9937102000695,701.9937102000695,702.4931141000707,702.4770596000599,702.4774313000962,702.4931141000707,702.7429367000004,702.9261695001042,702.9261695001042,703.0768896000227,space,1,0.1358345999615267,None,703.0795163000003,703.592375600012,704.5752835000167,,,704.5914024000522,,,,,,,,,,,,,,,012,001,2025-05-01_04h36.23.516,Cued GoNogo Task,2024.2.4,59.98098599438131,2025-05-01 04h36.29.132987 +0200,
block/CondBlock2.xlsx,You are about to start a block of type 2 trials.,17,17,0,Go,Go,0.26,0.2,0.05,space,blue,vertical,space,259.7600029000314,None,space,1,0.1654077999992296,None,,,,0,1,1,1,0,17,17,17,704.5914024000522,,,,,,,,,,,,,,,,704.5754784001037,704.5914024000522,705.2909622000298,705.2909622000298,705.7905407000799,705.7741361000808,705.7745403000154,705.7905407000799,706.0569173000986,706.240273600095,706.240273600095,706.4078838001005,space,1,0.1654077999992296,None,706.4104460000526,706.9227947000181,707.9061227000784,,,707.9220300000161,,,,,,,,,,,,,,,012,001,2025-05-01_04h36.23.516,Cued GoNogo Task,2024.2.4,59.98098599438131,2025-05-01 04h36.29.132987 +0200,
block/CondBlock2.xlsx,You are about to start a block of type 2 trials.,18,18,0,Go,Go,0.1,0.05,0.2,space,blue,horizontal,space,259.7600029000314,None,space,1,0.13814880000427365,None,,,,0,1,1,1,0,18,18,18,707.9220300000161,,,,,,,,,,,,,,,,707.9063927000389,707.9220300000161,708.6213433000958,708.6213433000958,709.121095700073,709.1051947000669,709.1055999000091,709.121095700073,709.2210419999901,709.4207678000676,709.4207678000676,709.571514600073,space,1,0.13814880000427365,None,709.5744310000446,710.0869491000194,711.0698886000318,,,711.0860758000053,,,,,,,,,,,,,,,012,001,2025-05-01_04h36.23.516,Cued GoNogo Task,2024.2.4,59.98098599438131,2025-05-01 04h36.29.132987 +0200,
block/CondBlock2.xlsx,You are about to start a block of type 2 trials.,19,19,0,Go,Go,0.46,0.2,0.05,space,blue,vertical,space,259.7600029000314,None,space,1,0.23917710001114756,None,,,,0,1,1,1,0,19,19,19,711.0860758000053,,,,,,,,,,,,,,,,711.0700804000953,711.0860758000053,711.785416000057,711.785416000057,712.2850548001006,712.2690170001006,712.2694785000058,712.2850548001006,712.7514817999909,712.9345326999901,712.9345326999901,713.1852757000597,space,1,0.23917710001114756,None,713.1879581999965,713.7006367000286,714.6837693999987,,,714.7000070000067,,,,,,,,,,,,,,,012,001,2025-05-01_04h36.23.516,Cued GoNogo Task,2024.2.4,59.98098599438131,2025-05-01 04h36.29.132987 +0200,
block/CondBlock2.xlsx,You are about to start a block of type 2 trials.,20,20,0,Go,Go,0.3,0.05,0.2,space,blue,horizontal,space,259.7600029000314,None,space,1,0.18402609997428954,None,,,,0,1,1,1,0,20,20,20,714.7000070000067,,,,,,,,,,,,,,,,714.6839904000517,714.7000070000067,715.3991880000103,715.3991880000103,715.8989184000529,715.8829198000021,715.8833105000667,715.8989184000529,716.1985972000984,716.3985731001012,716.3985731001012,716.5993269000901,space,1,0.18402609997428954,None,716.6022462000838,717.1145127000054,718.0973761000205,,,718.1136052000802,,,,,,,,,,,,,,,012,001,2025-05-01_04h36.23.516,Cued GoNogo Task,2024.2.4,59.98098599438131,2025-05-01 04h36.29.132987 +0200,
block/CondBlock2.xlsx,You are about to start a block of type 2 trials.,21,21,0,Go,Go,0.23,0.05,0.2,space,green,horizontal,space,259.7600029000314,None,space,1,0.18887439998798072,None,,,,0,1,1,1,0,21,21,21,718.1136052000802,,,,,,,,,,,,,,,,718.0976252000546,718.1136052000802,718.8129528000718,718.8129528000718,719.3127404000843,719.2965036000824,719.2969134000596,719.3127404000843,719.5457598000066,719.7292566000251,719.7292566000251,719.9296860999893,space,1,0.18887439998798072,None,719.932339400053,720.4449965000385,721.4283042000607,,,721.4442608000245,,,,,,,,,,,,,,,012,001,2025-05-01_04h36.23.516,Cued GoNogo Task,2024.2.4,59.98098599438131,2025-05-01 04h36.29.132987 +0200,
block/CondBlock2.xlsx,You are about to start a block of type 2 trials.,22,22,0,Go,Go,0.19,0.2,0.05,space,green,vertical,space,259.7600029000314,None,space,1,0.18045660003554076,None,,,,0,1,1,1,0,22,22,22,721.4442608000245,,,,,,,,,,,,,,,,721.4284790999955,721.4442608000245,722.1435880000936,722.1435880000936,722.6431298000971,722.6270727000665,722.6274550000671,722.6431298000971,722.8429762000451,723.0262019000947,723.0262019000947,723.2102115000598,space,1,0.18045660003554076,None,723.2128115000669,723.725677600014,724.7087928000838,,,724.724786600098,,,,,,,,,,,,,,,012,001,2025-05-01_04h36.23.516,Cued GoNogo Task,2024.2.4,59.98098599438131,2025-05-01 04h36.29.132987 +0200,
block/CondBlock2.xlsx,You are about to start a block of type 2 trials.,23,23,0,NoGo,NoGo,0.41,0.2,0.05,none,blue,vertical,space,259.7600029000314,None,None,1,,,,,,0,1,1,1,0,23,23,23,724.724786600098,,,,,,,,,,,,,,,,724.7091149000917,724.724786600098,725.4242764000082,725.4242764000082,725.9238702000584,725.9077877000673,725.9081979000475,725.9238702000584,726.3402094000485,726.5235764000099,726.5235764000099,727.0072221000446,None,1,,,727.0089723001001,727.5224240000825,728.5056117000058,727.0229248000542,727.0229248000542,728.5217727000127,,,,,,,,,,,,,,,012,001,2025-05-01_04h36.23.516,Cued GoNogo Task,2024.2.4,59.98098599438131,2025-05-01 04h36.29.132987 +0200,
block/CondBlock2.xlsx,You are about to start a block of type 2 trials.,24,24,0,Go,Go,0.17,0.2,0.05,space,blue,vertical,space,259.7600029000314,None,space,1,0.12716479995287955,None,,,,0,1,1,1,0,24,24,24,728.5217727000127,,,,,,,,,,,,,,,,728.5057750000851,728.5217727000127,729.2210926000262,729.2210926000262,729.7207113000331,729.7044283000287,729.7048138000537,729.7207113000331,729.9038194000022,730.0870447000489,730.0870447000489,730.2212846000912,space,1,0.12716479995287955,None,730.2241397000616,730.7366186000872,731.7196357999928,,,731.735914500081,,,,,,,,,,,,,,,012,001,2025-05-01_04h36.23.516,Cued GoNogo Task,2024.2.4,59.98098599438131,2025-05-01 04h36.29.132987 +0200,
block/CondBlock2.xlsx,You are about to start a block of type 2 trials.,25,25,0,Go,Go,0.27,0.05,0.2,space,blue,horizontal,space,259.7600029000314,None,space,1,0.13302259996999055,None,,,,0,1,1,1,0,25,25,25,731.735914500081,,,,,,,,,,,,,,,,731.71981280006,731.735914500081,732.4351391000673,732.4351391000673,732.9347729000729,732.9188544000499,732.9192465000087,732.9347729000729,733.2178293000907,733.4010074000107,733.4010074000107,733.535967700067,space,1,0.13302259996999055,None,733.5387140000239,734.0506225000136,735.0337587000104,,,735.0496685000835,,,,,,,,,,,,,,,012,001,2025-05-01_04h36.23.516,Cued GoNogo Task,2024.2.4,59.98098599438131,2025-05-01 04h36.29.132987 +0200,
block/CondBlock2.xlsx,You are about to start a block of type 2 trials.,26,26,0,Go,Go,0.26,0.05,0.2,space,green,horizontal,space,259.7600029000314,None,space,1,0.1871237000450492,None,,,,0,1,1,1,0,26,26,26,735.0496685000835,,,,,,,,,,,,,,,,735.0339213000843,735.0496685000835,735.7491059000604,735.7491059000604,736.2486645000754,736.2324455000926,736.2329197000945,736.2486645000754,736.5151651999913,736.6985444000456,736.6985444000456,736.899044400081,space,1,0.1871237000450492,None,736.9019895000383,737.4143783000764,738.3975625000894,,,738.4135204000631,,,,,,,,,,,,,,,012,001,2025-05-01_04h36.23.516,Cued GoNogo Task,2024.2.4,59.98098599438131,2025-05-01 04h36.29.132987 +0200,
block/CondBlock2.xlsx,You are about to start a block of type 2 trials.,27,27,0,Go,Go,0.22,0.2,0.05,space,green,vertical,space,259.7600029000314,None,space,1,0.16188380005769432,None,,,,0,1,1,1,0,27,27,27,738.4135204000631,,,,,,,,,,,,,,,,738.3979166999925,738.4135204000631,739.1129521999974,739.1129521999974,739.6125319000566,739.5963965000119,739.596778600011,739.6125319000566,739.8457275000401,740.0289082000963,740.0289082000963,740.1962871000869,space,1,0.16188380005769432,None,740.1995370000368,740.7119934000075,741.7110147000058,,,,,,,,,,,,,,,,,,012,001,2025-05-01_04h36.23.516,Cued GoNogo Task,2024.2.4,59.98098599438131,2025-05-01 04h36.29.132987 +0200,
block/CondBlock2.xlsx,You are about to start a block of type 2 trials.,28,28,0,Go,Go,0.19,0.05,0.2,space,blue,horizontal,space,259.7600029000314,None,space,1,0.15353800007142127,None,,,,0,1,1,1,0,28,28,28,741.7275231000967,,,,,,,,,,,,,,,,741.7112185000442,741.7275231000967,742.4103341000155,742.4268491000403,742.9098856000928,742.8938231000211,742.8943198000779,742.9098856000928,743.1097050000681,743.292859200039,743.292859200039,743.4602212000173,space,1,0.15353800007142127,None,743.4629207000835,743.9756399000762,744.958703600103,,,744.9748224000214,,,,,,,,,,,,,,,012,001,2025-05-01_04h36.23.516,Cued GoNogo Task,2024.2.4,59.98098599438131,2025-05-01 04h36.29.132987 +0200,
block/CondBlock2.xlsx,You are about to start a block of type 2 trials.,29,29,0,Go,Go,0.18,0.05,0.2,space,blue,horizontal,space,259.7600029000314,None,space,1,0.1860097999451682,None,,,,0,1,1,1,0,29,29,29,744.9748224000214,,,,,,,,,,,,,,,,744.958964999998,744.9748224000214,745.6744576999918,745.6744576999918,746.1738215000369,746.1578613000456,746.1582678999985,746.1738215000369,746.3571652000537,746.5402421000181,746.5402421000181,746.7412368000951,space,1,0.1860097999451682,None,746.7440818999894,747.256292300066,748.2393361000577,,,748.2555539000314,,,,,,,,,,,,,,,012,001,2025-05-01_04h36.23.516,Cued GoNogo Task,2024.2.4,59.98098599438131,2025-05-01 04h36.29.132987 +0200,
block/CondBlock2.xlsx,You are about to start a block of type 2 trials.,30,30,0,NoGo,NoGo,0.23,0.2,0.05,none,blue,vertical,space,259.7600029000314,None,None,1,,,,,,0,1,1,1,0,30,30,30,748.2555539000314,,,,,,,,,,,,,,,,748.2395187000511,748.2555539000314,748.9549026000313,748.9549026000313,749.4544720000122,749.4387317000655,749.4393719000509,749.4544720000122,749.6878732000478,749.8709952000063,749.8709952000063,750.3543287999928,None,1,,,750.3558690000791,750.8533758000704,751.8363157000858,750.370432500029,750.370432500029,751.8527374000987,,,,,,,,,,,,,,,012,001,2025-05-01_04h36.23.516,Cued GoNogo Task,2024.2.4,59.98098599438131,2025-05-01 04h36.29.132987 +0200,
block/CondBlock2.xlsx,You are about to start a block of type 2 trials.,31,31,0,Go,Go,0.43,0.2,0.05,space,green,vertical,space,259.7600029000314,None,space,1,0.2973084000404924,None,,,,0,1,1,1,0,31,31,31,751.8527374000987,,,,,,,,,,,,,,,,751.8365388000384,751.8691567000933,752.568763700081,752.568763700081,753.0681211000774,753.052193999989,753.0527131000999,753.0681211000774,753.5010726000182,753.6843008000869,753.6843008000869,753.9849434000207,space,1,0.2973084000404924,None,753.9882806000533,754.5003217000049,755.4835549000418,,,755.4995565999998,,,,,,,,,,,,,,,012,001,2025-05-01_04h36.23.516,Cued GoNogo Task,2024.2.4,59.98098599438131,2025-05-01 04h36.29.132987 +0200,
block/CondBlock2.xlsx,You are about to start a block of type 2 trials.,32,32,0,Go,Go,0.13,0.05,0.2,space,blue,horizontal,space,259.7600029000314,None,space,1,0.14318939996883273,None,,,,0,1,1,1,0,32,32,32,755.4995565999998,,,,,,,,,,,,,,,,755.4838489000686,755.4995565999998,756.1989251000341,756.1989251000341,756.6987839000067,756.6822561000008,756.6826247000135,756.6987839000067,756.8318378000986,757.0151819000021,757.0151819000021,757.1660319000948,space,1,0.14318939996883273,None,757.1702081999974,757.6810666000238,758.6645357999951,,,758.6804090000223,,,,,,,,,,,,,,,012,001,2025-05-01_04h36.23.516,Cued GoNogo Task,2024.2.4,59.98098599438131,2025-05-01 04h36.29.132987 +0200,
block/CondBlock2.xlsx,You are about to start a block of type 2 trials.,33,33,0,Go,Go,0.45,0.05,0.2,space,green,horizontal,space,259.7600029000314,None,space,1,0.04490450001321733,None,,,,0,1,1,1,0,33,33,33,758.6804090000223,,,,,,,,,,,,,,,,758.6647157000843,758.6804090000223,759.3796042000176,759.3796042000176,759.8792059000116,759.8637092000572,759.8640713000204,759.8792059000116,760.3288685000734,760.529028100078,760.529028100078,760.5798918000655,space,1,0.04490450001321733,None,760.582447300083,761.09490190004,762.0778683000244,,,762.0941104000667,,,,,,,,,,,,,,,012,001,2025-05-01_04h36.23.516,Cued GoNogo Task,2024.2.4,59.98098599438131,2025-05-01 04h36.29.132987 +0200,
block/CondBlock2.xlsx,You are about to start a block of type 2 trials.,34,34,0,Go,Go,0.14,0.2,0.05,space,blue,vertical,space,259.7600029000314,None,space,1,0.17981060000602156,None,,,,0,1,1,1,0,34,34,34,762.0941104000667,,,,,,,,,,,,,,,,762.0780433000764,762.0941104000667,762.7935803000582,762.7935803000582,763.2931278999895,763.2770010000095,763.2774221000727,763.2931278999895,763.4429605000187,763.6263590001035,763.6263590001035,763.8102506001014,space,1,0.17981060000602156,None,763.8138633000199,764.3258749000961,765.3249662000453,,,,,,,,,,,,,,,,,,012,001,2025-05-01_04h36.23.516,Cued GoNogo Task,2024.2.4,59.98098599438131,2025-05-01 04h36.29.132987 +0200,
block/CondBlock2.xlsx,You are about to start a block of type 2 trials.,35,35,0,Go,Go,0.11,0.2,0.05,space,blue,vertical,space,259.7600029000314,None,space,1,0.11050330009311438,None,,,,0,1,1,1,0,35,35,35,765.3414163000416,,,,,,,,,,,,,,,,765.325255200034,765.3414163000416,766.0241944000591,766.0408506999956,766.5240100000519,766.5078428999986,766.5082351000747,766.5240100000519,766.6403598000761,766.8234775000019,766.8234775000019,766.9409033000702,space,1,0.11050330009311438,None,766.9437466000672,767.456480700057,768.4394298000261,,,768.4554757000878,,,,,,,,,,,,,,,012,001,2025-05-01_04h36.23.516,Cued GoNogo Task,2024.2.4,59.98098599438131,2025-05-01 04h36.29.132987 +0200,
block/CondBlock2.xlsx,You are about to start a block of type 2 trials.,36,36,0,Go,Go,0.15,0.05,0.2,space,green,horizontal,space,259.7600029000314,None,space,1,0.11340060003567487,None,,,,0,1,1,1,0,36,36,36,768.4554757000878,,,,,,,,,,,,,,,,768.4396257000044,768.4554757000878,769.1549202000024,769.1549202000024,769.6547011000803,769.6386788000818,769.6390826000134,769.6547011000803,769.8044014000334,770.0042220000178,770.0042220000178,770.121795300045,space,1,0.11340060003567487,None,770.1245805000653,770.6372347000288,771.6202604999999,,,771.6362345000962,,,,,,,,,,,,,,,012,001,2025-05-01_04h36.23.516,Cued GoNogo Task,2024.2.4,59.98098599438131,2025-05-01 04h36.29.132987 +0200,
block/CondBlock2.xlsx,You are about to start a block of type 2 trials.,37,37,0,Go,Go,0.15,0.2,0.05,space,green,vertical,space,259.7600029000314,None,space,1,0.12467080005444586,None,,,,0,1,1,1,0,37,37,37,771.6362345000962,,,,,,,,,,,,,,,,771.6205067000119,771.6362345000962,772.3358737000963,772.3358737000963,772.8352268000599,772.8190447000088,772.8194312000414,772.8352268000599,772.9850873000687,773.1851747999899,773.1851747999899,773.3192760000238,space,1,0.12467080005444586,None,773.3220273000188,773.8344627000624,774.817674400052,,,774.8336596000008,,,,,,,,,,,,,,,012,001,2025-05-01_04h36.23.516,Cued GoNogo Task,2024.2.4,59.98098599438131,2025-05-01 04h36.29.132987 +0200,
block/CondBlock2.xlsx,You are about to start a block of type 2 trials.,38,38,0,NoGo,NoGo,0.14,0.2,0.05,none,green,vertical,space,259.7600029000314,None,space,0,0.09646209992934018,None,,,,0,1,1,1,0,38,38,38,774.8336596000008,,,,,,,,,,,,,,,,774.8178482000949,774.8336596000008,775.5332270000363,775.5332270000363,776.0326420000056,776.0164647999918,776.0168497000122,776.0326420000056,776.1825049000327,776.365621300065,776.365621300065,776.4667236000532,space,0,0.09646209992934018,None,776.4709275000496,776.9818948000902,777.9649307000218,,,777.9810852000955,,,,,,,,,,,,,,,012,001,2025-05-01_04h36.23.516,Cued GoNogo Task,2024.2.4,59.98098599438131,2025-05-01 04h36.29.132987 +0200,
block/CondBlock2.xlsx,You are about to start a block of type 2 trials.,39,39,0,Go,Go,0.46,0.2,0.05,space,green,vertical,space,259.7600029000314,None,None,0,,,,,,0,1,1,1,0,39,39,39,777.9810852000955,,,,,,,,,,,,,,,,777.9651219000807,777.9810852000955,778.6803892999887,778.6803892999887,779.1799703000579,779.1638317999896,779.164304700098,779.1799703000579,779.6463156000245,779.8294279000256,779.8294279000256,780.3130483001005,None,0,,,780.3168981000781,780.8288706000894,781.8279118000064,780.3291183999972,780.3291183999972,,,,,,,,,,,,,,,,012,001,2025-05-01_04h36.23.516,Cued GoNogo Task,2024.2.4,59.98098599438131,2025-05-01 04h36.29.132987 +0200,
block/CondBlock2.xlsx,You are about to start a block of type 2 trials.,40,40,0,Go,Go,0.5,0.05,0.2,space,blue,horizontal,space,259.7600029000314,None,space,1,0.11989059997722507,None,,,,0,1,1,1,0,40,40,40,781.8444478000747,,,,,,,,,,,,,,,,781.8281117000151,781.8444478000747,782.527560000075,782.5440023000119,783.0269226999953,783.0108642000705,783.0112699000165,783.0269226999953,783.5266210000264,783.7265132000903,783.7265132000903,783.8605304000666,space,1,0.11989059997722507,None,783.8635755000869,784.37597500009,785.3749744000379,,,,,,,,,,,,,,,,,,012,001,2025-05-01_04h36.23.516,Cued GoNogo Task,2024.2.4,59.98098599438131,2025-05-01 04h36.29.132987 +0200,
block/CondBlock2.xlsx,You are about to start a block of type 2 trials.,41,41,0,Go,Go,0.16,0.05,0.2,space,green,horizontal,space,259.7600029000314,None,space,1,0.13084450003225356,None,,,,0,1,1,1,0,41,41,41,785.3915594000136,,,,,,,,,,,,,,,,785.3751851000125,785.3915594000136,786.0746672000969,786.091084200074,786.5739440000616,786.557799100061,786.5581819000654,786.5739440000616,786.7405095000286,786.923654400045,786.923654400045,787.057713599992,space,1,0.13084450003225356,None,787.0606591000687,787.5733527000993,788.5564122000942,,,788.5723504000343,,,,,,,,,,,,,,,012,001,2025-05-01_04h36.23.516,Cued GoNogo Task,2024.2.4,59.98098599438131,2025-05-01 04h36.29.132987 +0200,
