Block,blockMsg,thisN,thisTrialN,thisRepN,CueType,StimType,CueTime,Stim_Height,Stim_Width,CRESP,Color,Orientation,key_resp_2.keys,key_resp_2.rt,key_resp_2.duration,Key_Resp.keys,Key_Resp.corr,Key_Resp.rt,Key_Resp.duration,key_resp_3.keys,key_resp_3.rt,key_resp_3.duration,Blocks.thisRepN,Blocks.thisTrialN,Blocks.thisN,Blocks.thisIndex,Trials.thisRepN,Trials.thisTrialN,Trials.thisN,Trials.thisIndex,thisRow.t,notes,TaskIntro.started,fixation.started,key_resp.started,TaskIntro.stopped,key_resp.keys,key_resp.rt,key_resp.duration,BlockStart.started,BlockStart_Msg.started,key_resp_2.started,BlockStart.stopped,Blocks.key_resp_2.keys,Blocks.key_resp_2.rt,Blocks.key_resp_2.duration,Fixation.started,FixationPhase.started,Blank.started,FixationPhase.stopped,Blank.stopped,Fixation.stopped,Trial.started,Cue.started,Cue.stopped,GoNogo_Stim.started,Key_Resp.started,Trial.stopped,Trials.Key_Resp.keys,Trials.Key_Resp.corr,Trials.Key_Resp.rt,Trials.Key_Resp.duration,Feedback.started,Feedback_Present.started,Feedback_Present.stopped,Feedback.stopped,GoNogo_Stim.stopped,Key_Resp.stopped,BlockEnd.started,BlockEnd_Msg.started,key_resp_3.started,BlockEnd.stopped,Blocks.key_resp_3.keys,Blocks.key_resp_3.rt,Blocks.key_resp_3.duration,TaskEnd.started,ThankYou.started,key_resp_4.started,TaskEnd.stopped,key_resp_4.keys,key_resp_4.rt,key_resp_4.duration,participant,session,date,expName,psychopyVersion,frameRate,expStart,
,,,,,,,,,,,,,,,,,,,,,,,,,,,,,,,,,0.028761300025507808,0.04431070003192872,0.04431070003192872,21.779788300045766,space,21.730194099945948,None,,,,,,,,,,,,,,,,,,,,,,,,,,,,,,,,,,,,,,,,,,,,008,001,2025-04-30_20h58.00.047,Cued GoNogo Task,2024.2.4,59.72645283510833,2025-04-30 20h58.06.433855 +0200,
block/CondBlock1.xlsx,You are about to start a block of type 1 trials.,0,0,0,Go,Go,0.13,0.05,0.2,space,blue,horizontal,space,1.3258059000363573,None,space,1,0.43649290001485497,None,,,,0,0,0,0,0,0,0,0,23.191595599986613,,,,,,,,,21.788004699978046,21.79227820003871,21.79227820003871,23.1259379000403,space,1.3258059000363573,None,23.188263699994422,23.191595599986613,23.840797999990173,23.890857700025663,24.34043980005663,24.324343099957332,24.324723300058395,24.34043980005663,24.473829900030978,24.65709120000247,24.65709120000247,25.107708900002763,space,1,0.43649290001485497,None,25.117225900059566,25.622833300032653,26.621903200051747,26.605940200039186,,,,,,,,,,,,,,,,,008,001,2025-04-30_20h58.00.047,Cued GoNogo Task,2024.2.4,59.72645283510833,2025-04-30 20h58.06.433855 +0200,
block/CondBlock1.xlsx,You are about to start a block of type 1 trials.,1,1,0,NoGo,NoGo,0.43,0.05,0.2,none,blue,horizontal,space,1.3258059000363573,None,None,1,,,,,,0,0,0,0,0,1,1,1,26.621903200051747,,,,,,,,,,,,,,,,26.606142200063914,26.621903200051747,27.322401299956255,27.322401299956255,,27.820765100070275,27.82122280006297,27.838021600036882,28.270909799961373,28.437159599969164,28.437159599969164,28.921454400056973,None,1,,,28.923724699998274,29.436435500043444,30.436096300021745,30.41939920000732,28.936803000047803,28.936803000047803,,,,,,,,,,,,,,,008,001,2025-04-30_20h58.00.047,Cued GoNogo Task,2024.2.4,59.72645283510833,2025-04-30 20h58.06.433855 +0200,
block/CondBlock1.xlsx,You are about to start a block of type 1 trials.,2,2,0,Go,Go,0.12,0.2,0.05,space,blue,vertical,space,1.3258059000363573,None,space,1,0.17427970003336668,None,,,,0,0,0,0,0,2,2,2,30.436096300021745,,,,,,,,,,,,,,,,30.419569100020453,30.436096300021745,31.134986600023694,31.151584499981254,31.63468430005014,31.618852799991146,31.619242300046608,31.63468430005014,31.767763099982403,31.95118380000349,31.95118380000349,32.134944100049324,space,1,0.17427970003336668,None,32.140172100043856,32.65042289998382,33.64965240005404,33.63350650004577,,,,,,,,,,,,,,,,,008,001,2025-04-30_20h58.00.047,Cued GoNogo Task,2024.2.4,59.72645283510833,2025-04-30 20h58.06.433855 +0200,
block/CondBlock1.xlsx,You are about to start a block of type 1 trials.,3,3,0,NoGo,NoGo,0.18,0.2,0.05,none,green,vertical,space,1.3258059000363573,None,None,1,,,,,,0,0,0,0,0,3,3,3,33.64965240005404,,,,,,,,,,,,,,,,33.63378070003819,33.64965240005404,34.34943000006024,34.36555149999913,34.84841700003017,34.83277470001485,34.833242999971844,34.84841700003017,35.031423400039785,35.21597140002996,35.21597140002996,35.71505880006589,None,1,,,35.716857800027356,36.21394429996144,37.21324489999097,37.19722840003669,35.731182600022294,35.731182600022294,,,,,,,,,,,,,,,008,001,2025-04-30_20h58.00.047,Cued GoNogo Task,2024.2.4,59.72645283510833,2025-04-30 20h58.06.433855 +0200,
block/CondBlock1.xlsx,You are about to start a block of type 1 trials.,4,4,0,Go,Go,0.24,0.05,0.2,space,green,horizontal,space,1.3258059000363573,None,space,1,0.19181049999315292,None,,,,0,0,0,0,0,4,4,4,37.21324489999097,,,,,,,,,,,,,,,,37.19742360000964,37.230035400018096,37.929456199985,37.929456199985,38.42882939998526,38.412827700027265,38.413253300008364,38.42882939998526,38.67896910000127,38.86221890000161,38.86221890000161,39.06293460004963,space,1,0.19181049999315292,None,39.067597400047816,39.577932800049894,40.577230800059624,40.56147409998812,,,,,,,,,,,,,,,,,008,001,2025-04-30_20h58.00.047,Cued GoNogo Task,2024.2.4,59.72645283510833,2025-04-30 20h58.06.433855 +0200,
block/CondBlock1.xlsx,You are about to start a block of type 1 trials.,5,5,0,Go,Go,0.21,0.05,0.2,space,blue,horizontal,space,1.3258059000363573,None,space,1,0.11865650000981987,None,,,,0,0,0,0,0,5,5,5,40.577230800059624,,,,,,,,,,,,,,,,40.56170620000921,40.577230800059624,41.276913100038655,41.276913100038655,41.776223200024106,41.76005799998529,41.76046390004922,41.776223200024106,41.9936510999687,42.1758792999899,42.1758792999899,42.30999780003913,space,1,0.11865650000981987,None,42.31346970004961,42.82491840003058,43.82439870003145,43.808516600052826,,,,,,,,,,,,,,,,,008,001,2025-04-30_20h58.00.047,Cued GoNogo Task,2024.2.4,59.72645283510833,2025-04-30 20h58.06.433855 +0200,
block/CondBlock1.xlsx,You are about to start a block of type 1 trials.,6,6,0,Go,Go,0.11,0.2,0.05,space,blue,vertical,space,1.3258059000363573,None,space,1,0.09083819994702935,None,,,,0,0,0,0,0,6,6,6,43.82439870003145,,,,,,,,,,,,,,,,43.80891540006269,43.82439870003145,44.524189200019464,44.524189200019464,45.02342960005626,45.00751590006985,45.00808669999242,45.02342960005626,45.140430200030096,45.323240100056864,45.323240100056864,45.424410599982366,space,1,0.09083819994702935,None,45.428556099999696,45.939428200013936,46.93870219995733,46.922832699958235,,,,,,,,,,,,,,,,,008,001,2025-04-30_20h58.00.047,Cued GoNogo Task,2024.2.4,59.72645283510833,2025-04-30 20h58.06.433855 +0200,
block/CondBlock1.xlsx,You are about to start a block of type 1 trials.,7,7,0,Go,Go,0.15,0.2,0.05,space,blue,vertical,space,1.3258059000363573,None,space,1,0.1352072999579832,None,,,,0,0,0,0,0,7,7,7,46.93870219995733,,,,,,,,,,,,,,,,46.92304320004769,46.93870219995733,47.63791960000526,47.63791960000526,48.137680200045,48.12179320002906,48.12229540001135,48.137680200045,48.28742960002273,48.48722780006938,48.48722780006938,48.638195500010625,space,1,0.1352072999579832,None,48.64230559999123,49.13682560005691,50.136088700033724,50.11997620004695,,,,,,,,,,,,,,,,,008,001,2025-04-30_20h58.00.047,Cued GoNogo Task,2024.2.4,59.72645283510833,2025-04-30 20h58.06.433855 +0200,
block/CondBlock1.xlsx,You are about to start a block of type 1 trials.,8,8,0,NoGo,NoGo,0.3,0.05,0.2,none,blue,horizontal,space,1.3258059000363573,None,None,1,,,,,,0,0,0,0,0,8,8,8,50.136088700033724,,,,,,,,,,,,,,,,50.12019619997591,50.152766400016844,50.8523330000462,50.8523330000462,51.35171239997726,51.33661250001751,51.33744310005568,51.35171239997726,51.65179110004101,51.85113600001205,51.85113600001205,52.33490610006265,None,1,,,52.33751510002185,52.85026450001169,53.84947250003461,53.833409999962896,52.35090830002446,52.35090830002446,,,,,,,,,,,,,,,008,001,2025-04-30_20h58.00.047,Cued GoNogo Task,2024.2.4,59.72645283510833,2025-04-30 20h58.06.433855 +0200,
block/CondBlock1.xlsx,You are about to start a block of type 1 trials.,9,9,0,NoGo,NoGo,0.17,0.05,0.2,none,blue,horizontal,space,1.3258059000363573,None,None,1,,,,,,0,0,0,0,0,9,9,9,53.84947250003461,,,,,,,,,,,,,,,,53.83357969997451,53.84947250003461,54.54915059998166,54.54915059998166,55.04856949998066,55.033540299977176,55.03406850004103,55.04856949998066,55.231775199994445,55.4147488999879,55.4147488999879,55.89847220003139,None,1,,,55.89877329999581,56.39766979997512,57.39666369999759,57.38123619998805,55.91434310004115,55.91434310004115,,,,,,,,,,,,,,,008,001,2025-04-30_20h58.00.047,Cued GoNogo Task,2024.2.4,59.72645283510833,2025-04-30 20h58.06.433855 +0200,
block/CondBlock1.xlsx,You are about to start a block of type 1 trials.,10,10,0,NoGo,NoGo,0.26,0.2,0.05,none,green,vertical,space,1.3258059000363573,None,None,1,,,,,,0,0,0,0,0,10,10,10,57.39666369999759,,,,,,,,,,,,,,,,57.38148189999629,57.413544000010006,58.11280640005134,58.11280640005134,58.612351699965075,58.59703740000259,58.59768540004734,58.612351699965075,58.878968200064264,59.06220090005081,59.06220090005081,59.54575210006442,None,1,,,59.546094299992546,60.06125550006982,61.060310299973935,61.044309000018984,59.561466000042856,59.561466000042856,,,,,,,,,,,,,,,008,001,2025-04-30_20h58.00.047,Cued GoNogo Task,2024.2.4,59.72645283510833,2025-04-30 20h58.06.433855 +0200,
block/CondBlock1.xlsx,You are about to start a block of type 1 trials.,11,11,0,Go,Go,0.27,0.05,0.2,space,green,horizontal,space,1.3258059000363573,None,space,1,0.12906320008914918,None,,,,0,0,0,0,0,11,11,11,61.060310299973935,,,,,,,,,,,,,,,,61.044524600030854,61.060310299973935,61.760029099998064,61.760029099998064,62.25933350005653,62.24352989997715,62.24397239997052,62.25933350005653,62.54263689997606,62.725701899966225,62.725701899966225,62.86030309996568,space,1,0.12906320008914918,None,62.86566650005989,63.37500600004569,64.37411350000184,64.3584704999812,,,,,,,,,,,,,,,,,008,001,2025-04-30_20h58.00.047,Cued GoNogo Task,2024.2.4,59.72645283510833,2025-04-30 20h58.06.433855 +0200,
block/CondBlock1.xlsx,You are about to start a block of type 1 trials.,12,12,0,Go,Go,0.16,0.2,0.05,space,green,vertical,space,1.3258059000363573,None,space,1,0.23499350005295128,None,,,,0,0,0,0,0,12,12,12,64.37411350000184,,,,,,,,,,,,,,,,64.35865589999594,64.37411350000184,65.0736669000471,65.0736669000471,65.57335600000806,65.5574106000131,65.55785189999733,65.57335600000806,65.74051959998906,65.92293290002272,65.92293290002272,66.17415279999841,space,1,0.23499350005295128,None,66.1771643999964,66.68891979998443,67.68842410005163,67.67194420006126,,,,,,,,,,,,,,,,,008,001,2025-04-30_20h58.00.047,Cued GoNogo Task,2024.2.4,59.72645283510833,2025-04-30 20h58.06.433855 +0200,
block/CondBlock1.xlsx,You are about to start a block of type 1 trials.,13,13,0,Go,Go,0.13,0.2,0.05,space,green,vertical,space,1.3258059000363573,None,space,1,0.11421220004558563,None,,,,0,0,0,0,0,13,13,13,67.68842410005163,,,,,,,,,,,,,,,,67.67211899999529,67.68842410005163,68.38779649999924,68.38779649999924,68.88831710000522,68.87130860006437,68.87169219995849,68.88831710000522,69.02021530002821,69.2035087000113,69.2035087000113,69.32153580000158,space,1,0.11421220004558563,None,69.32452290004585,69.83660110004712,70.83579899999313,70.81976069998927,,,,,,,,,,,,,,,,,008,001,2025-04-30_20h58.00.047,Cued GoNogo Task,2024.2.4,59.72645283510833,2025-04-30 20h58.06.433855 +0200,
block/CondBlock1.xlsx,You are about to start a block of type 1 trials.,14,14,0,Go,Go,0.12,0.05,0.2,space,blue,horizontal,space,1.3258059000363573,None,space,1,0.13437220000196248,None,,,,0,0,0,0,0,14,14,14,70.83579899999313,,,,,,,,,,,,,,,,70.81998060003389,70.83579899999313,71.53516650001984,71.53516650001984,72.03474679996725,72.01847330003511,72.01888119999785,72.03474679996725,72.16794930002652,72.35082619998138,72.35082619998138,72.50233779998962,space,1,0.13437220000196248,None,72.50735029997304,73.00030499999411,73.99960660003126,73.98441380006261,,,,,,,,,,,,,,,,,008,001,2025-04-30_20h58.00.047,Cued GoNogo Task,2024.2.4,59.72645283510833,2025-04-30 20h58.06.433855 +0200,
block/CondBlock1.xlsx,You are about to start a block of type 1 trials.,15,15,0,Go,Go,0.45,0.2,0.05,space,blue,vertical,space,1.3258059000363573,None,space,1,0.23640139994677156,None,,,,0,0,0,0,0,15,15,15,73.99960660003126,,,,,,,,,,,,,,,,73.98460490000434,74.01626549998764,74.71588989999145,74.71588989999145,75.21600680006668,75.19952220004052,75.20001669996418,75.21600680006668,75.66485609998927,75.86472149996553,75.86472149996553,76.11588499997742,space,1,0.23640139994677156,None,76.11894049996044,76.63116440002341,,77.6301153000677,,,,,,,,,,,,,,,,,008,001,2025-04-30_20h58.00.047,Cued GoNogo Task,2024.2.4,59.72645283510833,2025-04-30 20h58.06.433855 +0200,
block/CondBlock1.xlsx,You are about to start a block of type 1 trials.,16,16,0,NoGo,NoGo,0.14,0.2,0.05,none,green,vertical,space,1.3258059000363573,None,None,1,,,,,,0,0,0,0,0,16,16,16,77.64644509996288,,,,,,,,,,,,,,,,77.63032660004683,77.64644509996288,78.3295348000247,78.34637679997832,78.82918490003794,78.8134150999831,78.81404960004147,78.82918490003794,78.97893790004309,79.162357000052,79.162357000052,79.64646179997362,None,1,,,79.648464399972,80.14566869998816,81.1443186000688,81.12939839996397,79.66192099999171,79.66192099999171,,,,,,,,,,,,,,,008,001,2025-04-30_20h58.00.047,Cued GoNogo Task,2024.2.4,59.72645283510833,2025-04-30 20h58.06.433855 +0200,
block/CondBlock1.xlsx,You are about to start a block of type 1 trials.,17,17,0,Go,Go,0.12,0.05,0.2,space,green,horizontal,space,1.3258059000363573,None,space,1,0.14577310008462518,None,,,,0,0,0,0,0,17,17,17,81.1443186000688,,,,,,,,,,,,,,,,81.12961740000173,81.16042530001141,81.85995900002308,81.85995900002308,82.35986800002865,82.34381250001024,82.34441110002808,82.35986800002865,82.49388730002102,82.67584559996612,82.67584559996612,82.82619140006136,space,1,0.14577310008462518,None,82.82923050003592,83.32532040006481,84.32464480004273,84.30841140006669,,,,,,,,,,,,,,,,,008,001,2025-04-30_20h58.00.047,Cued GoNogo Task,2024.2.4,59.72645283510833,2025-04-30 20h58.06.433855 +0200,
block/CondBlock1.xlsx,You are about to start a block of type 1 trials.,18,18,0,Go,Go,0.47,0.2,0.05,space,blue,vertical,space,1.3258059000363573,None,space,1,0.14417990006040782,None,,,,0,0,0,0,0,18,18,18,84.32464480004273,,,,,,,,,,,,,,,,84.3086767999921,84.34120560006704,85.04047330003232,85.04047330003232,85.54034860001411,85.52426650002599,85.52470880001783,85.54034860001411,86.02316860004794,86.20628260006197,86.20628260006197,86.35720790002961,space,1,0.14417990006040782,None,86.36008000001311,86.87250629998744,87.87158589996397,87.85591310006566,,,,,,,,,,,,,,,,,008,001,2025-04-30_20h58.00.047,Cued GoNogo Task,2024.2.4,59.72645283510833,2025-04-30 20h58.06.433855 +0200,
block/CondBlock1.xlsx,You are about to start a block of type 1 trials.,19,19,0,Go,Go,0.18,0.2,0.05,space,green,vertical,space,1.3258059000363573,None,space,1,0.1775453999871388,None,,,,0,0,0,0,0,19,19,19,87.87158589996397,,,,,,,,,,,,,,,,87.85618470003828,87.87158589996397,88.57124790002126,88.57124790002126,89.07065919996239,89.05462299997453,89.05512230005115,89.07065919996239,89.25385119998828,89.4371686000377,89.4371686000377,89.6211230000481,space,1,0.1775453999871388,None,89.62442730006296,90.13743520004209,,91.13595819997136,,,,,,,,,,,,,,,,,008,001,2025-04-30_20h58.00.047,Cued GoNogo Task,2024.2.4,59.72645283510833,2025-04-30 20h58.06.433855 +0200,
block/CondBlock1.xlsx,You are about to start a block of type 1 trials.,20,20,0,Go,Go,0.19,0.2,0.05,space,blue,vertical,space,1.3258059000363573,None,space,1,0.14535750006325543,None,,,,0,0,0,0,0,20,20,20,91.15209470002446,,,,,,,,,,,,,,,,91.13622139999643,91.15209470002446,91.83504899998661,91.85144780005794,92.33449270005804,92.31854000000749,92.3189308999572,92.33449270005804,92.53470179997385,92.71756959997583,92.71756959997583,92.86858200002462,space,1,0.14535750006325543,None,92.87186099996325,93.38373610004783,94.38300310005434,94.3668200999964,,,,,,,,,,,,,,,,,008,001,2025-04-30_20h58.00.047,Cued GoNogo Task,2024.2.4,59.72645283510833,2025-04-30 20h58.06.433855 +0200,
block/CondBlock1.xlsx,You are about to start a block of type 1 trials.,21,21,0,Go,Go,0.14,0.2,0.05,space,blue,vertical,space,1.3258059000363573,None,space,1,0.13051139994058758,None,,,,0,0,0,0,0,21,21,21,94.38300310005434,,,,,,,,,,,,,,,,94.36699480004609,94.38300310005434,95.08253540005535,95.08253540005535,95.58186949999072,95.56575820001308,95.56622919999063,95.58186949999072,95.73236819996964,95.9150286000222,95.9150286000222,96.04948110005353,space,1,0.13051139994058758,None,96.05212849995587,96.56443869997747,97.56348260003142,97.54772739997134,,,,,,,,,,,,,,,,,008,001,2025-04-30_20h58.00.047,Cued GoNogo Task,2024.2.4,59.72645283510833,2025-04-30 20h58.06.433855 +0200,
block/CondBlock1.xlsx,You are about to start a block of type 1 trials.,22,22,0,Go,Go,0.15,0.2,0.05,space,blue,vertical,space,1.3258059000363573,None,space,1,0.15779299999121577,None,,,,0,0,0,0,0,22,22,22,97.56348260003142,,,,,,,,,,,,,,,,97.54792519996408,97.56348260003142,98.26424869999755,98.26424869999755,,98.76314499997534,98.76366030005738,98.77937630005181,98.92930269998033,99.1122289999621,99.1122289999621,99.27982920000795,space,1,0.15779299999121577,None,99.28368640004192,99.79507950006519,100.7944060000591,100.77840549999382,,,,,,,,,,,,,,,,,008,001,2025-04-30_20h58.00.047,Cued GoNogo Task,2024.2.4,59.72645283510833,2025-04-30 20h58.06.433855 +0200,
block/CondBlock1.xlsx,You are about to start a block of type 1 trials.,23,23,0,Go,Go,0.23,0.05,0.2,space,green,horizontal,space,1.3258059000363573,None,space,1,0.14740010001696646,None,,,,0,0,0,0,0,23,23,23,100.7944060000591,,,,,,,,,,,,,,,,100.7786097000353,100.7944060000591,101.4937171000056,101.4937171000056,101.99343500006944,101.97715629998129,101.97760079998989,101.99343500006944,102.22671760001685,102.41036330000497,102.41036330000497,102.56163879996166,space,1,0.14740010001696646,None,102.56499840004835,103.07579949998762,104.07486719998997,104.05896990001202,,,,,,,,,,,,,,,,,008,001,2025-04-30_20h58.00.047,Cued GoNogo Task,2024.2.4,59.72645283510833,2025-04-30 20h58.06.433855 +0200,
block/CondBlock1.xlsx,You are about to start a block of type 1 trials.,24,24,0,Go,Go,0.2,0.2,0.05,space,blue,vertical,space,1.3258059000363573,None,space,1,0.17225770000368357,None,,,,0,0,0,0,0,24,24,24,104.07486719998997,,,,,,,,,,,,,,,,104.05918009998277,104.07486719998997,104.77455610001925,104.77455610001925,105.27420530002564,105.2584491999587,105.25899690005463,105.27420530002564,105.47396940004546,105.67368949996307,105.67368949996307,105.8579193999758,space,1,0.17225770000368357,None,105.86107280000579,106.37314869998954,,107.3722279999638,,,,,,,,,,,,,,,,,008,001,2025-04-30_20h58.00.047,Cued GoNogo Task,2024.2.4,59.72645283510833,2025-04-30 20h58.06.433855 +0200,
block/CondBlock1.xlsx,You are about to start a block of type 1 trials.,25,25,0,Go,Go,0.15,0.2,0.05,space,blue,vertical,space,1.3258059000363573,None,space,1,0.11670059990137815,None,,,,0,0,0,0,0,25,25,25,107.3889280000003,,,,,,,,,,,,,,,,107.3724526000442,107.3889280000003,108.07162930001505,108.08946489996742,108.57127670000773,108.55532519996632,108.55577750003431,108.57127670000773,108.72123849997297,108.92107290006243,108.92107290006243,109.04010250000283,space,1,0.11670059990137815,None,109.04412720003165,109.55403910006862,110.5529234999558,110.5369936999632,,,,,,,,,,,,,,,,,008,001,2025-04-30_20h58.00.047,Cued GoNogo Task,2024.2.4,59.72645283510833,2025-04-30 20h58.06.433855 +0200,
block/CondBlock1.xlsx,You are about to start a block of type 1 trials.,26,26,0,NoGo,NoGo,0.2,0.2,0.05,none,blue,vertical,space,1.3258059000363573,None,None,1,,,,,,0,0,0,0,0,26,26,26,110.5529234999558,,,,,,,,,,,,,,,,110.53717530006543,110.5529234999558,111.2523675999837,111.2523675999837,111.75206650001928,111.7360148000298,111.73642860003747,111.75206650001928,111.95155140000861,112.15169610001612,112.15169610001612,112.6353814000031,None,1,,,112.63706300000194,113.1341734000016,114.13355689996388,114.11722690006718,112.65151370002422,112.65151370002422,,,,,,,,,,,,,,,008,001,2025-04-30_20h58.00.047,Cued GoNogo Task,2024.2.4,59.72645283510833,2025-04-30 20h58.06.433855 +0200,
block/CondBlock1.xlsx,You are about to start a block of type 1 trials.,27,27,0,Go,Go,0.29,0.05,0.2,space,green,horizontal,space,1.3258059000363573,None,space,1,0.2695439999224618,None,,,,0,0,0,0,0,27,27,27,114.13355689996388,,,,,,,,,,,,,,,,114.11740760004614,114.15021940006409,114.84963089996018,114.84963089996018,115.35012019996066,115.33288200001698,115.33331530005671,115.35012019996066,115.64898140006699,115.83188289997634,115.83188289997634,116.11664270004258,space,1,0.2695439999224618,None,116.12092949997168,116.63189880002756,,117.63070590002462,,,,,,,,,,,,,,,,,008,001,2025-04-30_20h58.00.047,Cued GoNogo Task,2024.2.4,59.72645283510833,2025-04-30 20h58.06.433855 +0200,
block/CondBlock1.xlsx,You are about to start a block of type 1 trials.,28,28,0,Go,Go,0.24,0.2,0.05,space,blue,vertical,space,1.3258059000363573,None,space,1,0.22374699998181313,None,,,,0,0,0,0,0,28,28,28,117.64714670006651,,,,,,,,,,,,,,,,117.63100499997381,117.64714670006651,118.32976810005493,118.34657419996802,118.82937729998957,118.81350379996002,118.81391090003308,118.82937729998957,119.07915160001721,119.26261690002866,119.26261690002866,119.49766250001267,space,1,0.22374699998181313,None,119.50083330005873,120.01192900002934,,121.01132100005634,,,,,,,,,,,,,,,,,008,001,2025-04-30_20h58.00.047,Cued GoNogo Task,2024.2.4,59.72645283510833,2025-04-30 20h58.06.433855 +0200,
block/CondBlock1.xlsx,You are about to start a block of type 1 trials.,29,29,0,Go,Go,0.15,0.05,0.2,space,green,horizontal,space,1.3258059000363573,None,space,1,0.29434710007626563,None,,,,0,0,0,0,0,29,29,29,121.0279078000458,,,,,,,,,,,,,,,,121.01157269999385,121.0279078000458,121.71046139998361,121.72721020004246,122.21003439999186,122.19441970007028,122.19492010003887,122.21003439999186,122.36009179998655,122.55968559999019,122.55968559999019,122.86050389998127,space,1,0.29434710007626563,None,122.86345649999566,123.37568519997876,124.37520220002625,124.35982150002383,,,,,,,,,,,,,,,,,008,001,2025-04-30_20h58.00.047,Cued GoNogo Task,2024.2.4,59.72645283510833,2025-04-30 20h58.06.433855 +0200,
block/CondBlock1.xlsx,You are about to start a block of type 1 trials.,30,30,0,Go,Go,0.23,0.2,0.05,space,green,vertical,space,1.3258059000363573,None,space,1,0.1593202999792993,None,,,,0,0,0,0,0,30,30,30,124.37520220002625,,,,,,,,,,,,,,,,124.36012820003089,124.37520220002625,125.07428950001486,125.07428950001486,125.57382349995896,125.55787100002635,125.55829860002268,125.57382349995896,125.80744730005972,125.99037260003388,125.99037260003388,126.15746979997493,space,1,0.1593202999792993,None,126.16018060001079,126.67332910001278,,127.67227450001519,,,,,,,,,,,,,,,,,008,001,2025-04-30_20h58.00.047,Cued GoNogo Task,2024.2.4,59.72645283510833,2025-04-30 20h58.06.433855 +0200,
block/CondBlock1.xlsx,You are about to start a block of type 1 trials.,31,31,0,Go,Go,0.28,0.2,0.05,space,green,vertical,space,1.3258059000363573,None,space,1,0.1876248000189662,None,,,,0,0,0,0,0,31,31,31,127.68885729997419,,,,,,,,,,,,,,,,127.67245529999491,127.68885729997419,128.37185230001342,128.38848700001836,128.8711256000679,128.8554051000392,128.85592350002844,128.8711256000679,129.15449730004184,129.33754610002507,129.33754610002507,129.53821090003476,space,1,0.1876248000189662,None,129.5409362000646,130.0544385999674,,131.0539548000088,,,,,,,,,,,,,,,,,008,001,2025-04-30_20h58.00.047,Cued GoNogo Task,2024.2.4,59.72645283510833,2025-04-30 20h58.06.433855 +0200,
block/CondBlock1.xlsx,You are about to start a block of type 1 trials.,32,32,0,Go,Go,0.19,0.2,0.05,space,green,vertical,space,1.3258059000363573,None,space,1,0.1311056000413373,None,,,,0,0,0,0,0,32,32,32,131.06937290006317,,,,,,,,,,,,,,,,131.0541747000534,131.06937290006317,131.75221870001405,131.76938850001898,132.25213170005009,132.23600380006246,132.23647780006286,132.25213170005009,132.45162479998544,132.63471270003356,132.63471270003356,132.76909389998764,space,1,0.1311056000413373,None,132.77205569995567,133.28417810006067,134.2834417000413,134.26769680005964,,,,,,,,,,,,,,,,,008,001,2025-04-30_20h58.00.047,Cued GoNogo Task,2024.2.4,59.72645283510833,2025-04-30 20h58.06.433855 +0200,
block/CondBlock1.xlsx,You are about to start a block of type 1 trials.,33,33,0,Go,Go,0.12,0.2,0.05,space,green,vertical,space,1.3258059000363573,None,space,1,0.1660606999648735,None,,,,0,0,0,0,0,33,33,33,134.2834417000413,,,,,,,,,,,,,,,,134.2679175999947,134.2834417000413,134.98299010004848,134.98299010004848,135.4824661000166,135.46675200003665,135.46724230004475,135.4824661000166,135.61580989998765,135.79904850001913,135.79904850001913,135.9673451000126,space,1,0.1660606999648735,None,135.97075059998315,136.48142670001835,137.48086929996498,137.46489249996375,,,,,,,,,,,,,,,,,008,001,2025-04-30_20h58.00.047,Cued GoNogo Task,2024.2.4,59.72645283510833,2025-04-30 20h58.06.433855 +0200,
block/CondBlock1.xlsx,You are about to start a block of type 1 trials.,34,34,0,Go,Go,0.18,0.2,0.05,space,blue,vertical,space,1.3258059000363573,None,space,1,0.1518380999332294,None,,,,0,0,0,0,0,34,34,34,137.48086929996498,,,,,,,,,,,,,,,,137.46516570006497,137.48086929996498,138.18009949999396,138.18009949999396,138.6798409000039,138.66406530002132,138.6645338999806,138.6798409000039,138.86294540006202,139.06277039996348,139.06277039996348,139.23052069998812,space,1,0.1518380999332294,None,139.23455940000713,139.7454577999888,140.74476070003584,140.7286776000401,,,,,,,,,,,,,,,,,008,001,2025-04-30_20h58.00.047,Cued GoNogo Task,2024.2.4,59.72645283510833,2025-04-30 20h58.06.433855 +0200,
block/CondBlock1.xlsx,You are about to start a block of type 1 trials.,35,35,0,Go,Go,0.21,0.2,0.05,space,blue,vertical,space,1.3258059000363573,None,space,1,0.17392630001995713,None,,,,0,0,0,0,0,35,35,35,140.74476070003584,,,,,,,,,,,,,,,,140.7288447000319,140.74476070003584,141.44422930001747,141.44422930001747,141.94381349999458,141.92770860006567,141.9281539999647,141.94381349999458,142.16055709996726,142.34379299997818,142.34379299997818,142.52829970000312,space,1,0.17392630001995713,None,142.53104480006732,143.04305630002636,,144.0431725999806,,,,,,,,,,,,,,,,,008,001,2025-04-30_20h58.00.047,Cued GoNogo Task,2024.2.4,59.72645283510833,2025-04-30 20h58.06.433855 +0200,
block/CondBlock1.xlsx,You are about to start a block of type 1 trials.,36,36,0,Go,Go,0.2,0.2,0.05,space,green,vertical,space,1.3258059000363573,None,space,1,0.12600659998133779,None,,,,0,0,0,0,0,36,36,36,144.0584230000386,,,,,,,,,,,,,,,,144.04356799996458,144.0584230000386,144.7415258999681,144.75841410004068,145.24105770001188,145.22512900002766,145.22562879999168,145.24105770001188,145.44137620006222,145.64091339998413,145.64091339998413,145.77524129999802,space,1,0.12600659998133779,None,145.77917560003698,146.29033420002088,147.2896073999582,147.2734982999973,,,,,,,,,,,,,,,,,008,001,2025-04-30_20h58.00.047,Cued GoNogo Task,2024.2.4,59.72645283510833,2025-04-30 20h58.06.433855 +0200,
block/CondBlock1.xlsx,You are about to start a block of type 1 trials.,37,37,0,Go,Go,0.45,0.05,0.2,space,blue,horizontal,space,1.3258059000363573,None,space,1,0.12462729995604604,None,,,,0,0,0,0,0,37,37,37,147.2896073999582,,,,,,,,,,,,,,,,147.2736996000167,147.2896073999582,147.98887440003455,147.98887440003455,148.48836259997915,148.47258279996458,148.47341219999362,148.48836259997915,148.93801110005006,149.1377865000395,149.1377865000395,149.27225300006103,space,1,0.12462729995604604,None,149.27525050006807,149.78746350004803,150.78639060002752,150.77036630001385,,,,,,,,,,,,,,,,,008,001,2025-04-30_20h58.00.047,Cued GoNogo Task,2024.2.4,59.72645283510833,2025-04-30 20h58.06.433855 +0200,
block/CondBlock1.xlsx,You are about to start a block of type 1 trials.,38,38,0,Go,Go,0.13,0.05,0.2,space,blue,horizontal,space,1.3258059000363573,None,space,1,0.19146419991739094,None,,,,0,0,0,0,0,38,38,38,150.78639060002752,,,,,,,,,,,,,,,,150.77053580002394,150.78639060002752,151.48585950001143,151.48585950001143,151.98544419999234,151.97062849998474,151.97135240002535,151.98544419999234,152.11884959996678,152.30241270002443,152.30241270002443,152.5027081000153,space,1,0.19146419991739094,None,152.50531619996764,153.01848099997733,,154.0173298000591,,,,,,,,,,,,,,,,,008,001,2025-04-30_20h58.00.047,Cued GoNogo Task,2024.2.4,59.72645283510833,2025-04-30 20h58.06.433855 +0200,
block/CondBlock1.xlsx,You are about to start a block of type 1 trials.,39,39,0,Go,Go,0.46,0.2,0.05,space,blue,vertical,space,1.3258059000363573,None,space,1,0.20419720001518726,None,,,,0,0,0,0,0,39,39,39,154.03376669995487,,,,,,,,,,,,,,,,154.01752780005336,154.03376669995487,154.71637909999117,154.7333757999586,155.2160681000678,155.20042640005704,155.20085020002443,155.2160681000678,155.68254680000246,155.86581430002116,155.86581430002116,156.08325979998335,space,1,0.20419720001518726,None,156.08593159995507,156.59848020004574,157.59755710000172,157.5814323000377,,,,,,,,,,,,,,,,,008,001,2025-04-30_20h58.00.047,Cued GoNogo Task,2024.2.4,59.72645283510833,2025-04-30 20h58.06.433855 +0200,
block/CondBlock1.xlsx,You are about to start a block of type 1 trials.,40,40,0,Go,Go,0.29,0.2,0.05,space,blue,vertical,space,1.3258059000363573,None,space,1,0.15738190000411123,None,,,,0,0,0,0,0,40,40,40,157.59755710000172,,,,,,,,,,,,,,,,157.58161620004103,157.59755710000172,158.29730570001993,158.29730570001993,158.79653379996307,158.78068820002954,158.78124230005778,158.79653379996307,159.09647560003214,159.2797493999824,159.2797493999824,159.44744680006988,space,1,0.15738190000411123,None,159.4503639000468,159.96235759998672,160.96143590006977,160.94542949995957,,,,,,,,,,,,,,,,,008,001,2025-04-30_20h58.00.047,Cued GoNogo Task,2024.2.4,59.72645283510833,2025-04-30 20h58.06.433855 +0200,
block/CondBlock1.xlsx,You are about to start a block of type 1 trials.,41,41,0,Go,Go,0.22,0.2,0.05,space,blue,vertical,space,1.3258059000363573,None,space,1,0.18145630008075386,None,,,,0,0,0,0,0,41,41,41,160.96143590006977,,,,,,,,,,,,,,,,160.94559340004344,160.96143590006977,161.66105450002942,161.66105450002942,162.16034649999347,162.14423169998918,162.1446287999861,162.16034649999347,162.3939107999904,162.57685149996541,162.57685149996541,162.7620678000385,space,1,0.18145630008075386,None,162.76481109997258,163.27632040006574,164.27548199996818,164.25955149997026,,,,,,,,,,,,,,,,,008,001,2025-04-30_20h58.00.047,Cued GoNogo Task,2024.2.4,59.72645283510833,2025-04-30 20h58.06.433855 +0200,
block/CondBlock1.xlsx,You are about to start a block of type 1 trials.,42,42,0,Go,Go,0.49,0.2,0.05,space,blue,vertical,space,1.3258059000363573,None,space,1,0.32919620000757277,None,,,,0,0,0,0,0,42,42,42,164.27548199996818,,,,,,,,,,,,,,,,164.25973389996216,164.27548199996818,164.97482450003736,164.97482450003736,165.47448119998444,165.45852920005564,165.45906440005638,165.47448119998444,165.9741090000607,166.15743620006833,166.15743620006833,166.49177439999767,space,1,0.32919620000757277,None,166.49524039996322,167.00682270003017,168.00598550005816,167.98993779998273,,,,,,,,,,,,,,,,,008,001,2025-04-30_20h58.00.047,Cued GoNogo Task,2024.2.4,59.72645283510833,2025-04-30 20h58.06.433855 +0200,
block/CondBlock1.xlsx,You are about to start a block of type 1 trials.,43,43,0,Go,Go,0.2,0.2,0.05,space,blue,vertical,space,1.3258059000363573,None,space,1,0.13027720001991838,None,,,,0,0,0,0,0,43,43,43,168.00598550005816,,,,,,,,,,,,,,,,167.99021249997895,168.00598550005816,168.70515399996657,168.70515399996657,169.20461969997268,169.189035300049,169.18961130001117,169.20461969997268,169.404639699962,169.6044327999698,169.6044327999698,169.73879720002878,space,1,0.13027720001991838,None,169.74160700000357,170.25390580005478,171.2529504999984,171.23696060001384,,,,,,,,,,,,,,,,,008,001,2025-04-30_20h58.00.047,Cued GoNogo Task,2024.2.4,59.72645283510833,2025-04-30 20h58.06.433855 +0200,
block/CondBlock1.xlsx,You are about to start a block of type 1 trials.,44,44,0,Go,Go,0.3,0.05,0.2,space,blue,horizontal,space,1.3258059000363573,None,space,1,0.10140409995801747,None,,,,0,0,0,0,0,44,44,44,171.2529504999984,,,,,,,,,,,,,,,,171.23714270000346,171.2529504999984,171.9522838999983,171.9522838999983,172.45214429998305,172.43592560000252,172.43634819996078,172.45214429998305,172.75190300005488,172.95173730002716,172.95173730002716,173.06902940000873,space,1,0.10140409995801747,None,173.07231560000218,173.56775919999927,174.56686999998055,174.5509479000466,,,,,,,,,,,,,,,,,008,001,2025-04-30_20h58.00.047,Cued GoNogo Task,2024.2.4,59.72645283510833,2025-04-30 20h58.06.433855 +0200,
block/CondBlock1.xlsx,You are about to start a block of type 1 trials.,45,45,0,NoGo,NoGo,0.21,0.05,0.2,none,green,horizontal,space,1.3258059000363573,None,None,1,,,,,,0,0,0,0,0,45,45,45,174.56686999998055,,,,,,,,,,,,,,,,174.5511603000341,174.58380210003816,175.2829761999892,175.2829761999892,175.7827425999567,175.76659490005113,175.76699759997427,175.7827425999567,175.99913060001563,176.1824776000576,176.1824776000576,176.66587839997374,None,1,,,176.66776780004147,177.16511329996865,178.18075930001214,178.16475310001988,176.68188829999417,176.68188829999417,,,,,,,,,,,,,,,008,001,2025-04-30_20h58.00.047,Cued GoNogo Task,2024.2.4,59.72645283510833,2025-04-30 20h58.06.433855 +0200,
block/CondBlock1.xlsx,You are about to start a block of type 1 trials.,46,46,0,NoGo,NoGo,0.45,0.05,0.2,none,blue,horizontal,space,1.3258059000363573,None,None,1,,,,,,0,0,0,0,0,46,46,46,178.18075930001214,,,,,,,,,,,,,,,,178.16501920006704,178.18075930001214,178.88045449997298,178.88045449997298,179.37956639996264,179.36338170000818,179.36376910004765,179.37956639996264,179.82939339999575,180.02903760003392,180.02903760003392,180.5124084999552,None,1,,,180.51275580003858,181.01173030002974,182.01143740001135,181.99476629996207,180.52855320007075,180.52855320007075,,,,,,,,,,,,,,,008,001,2025-04-30_20h58.00.047,Cued GoNogo Task,2024.2.4,59.72645283510833,2025-04-30 20h58.06.433855 +0200,
block/CondBlock1.xlsx,You are about to start a block of type 1 trials.,47,47,0,Go,Go,0.24,0.05,0.2,space,green,horizontal,space,1.3258059000363573,None,space,1,0.16942829999607056,None,,,,0,0,0,0,0,47,47,47,182.01143740001135,,,,,,,,,,,,,,,,181.99495049996767,182.02741760003846,182.72744479996618,182.72744479996618,183.22690879995935,183.21143200004008,183.21216090000235,183.22690879995935,183.47654110006988,183.65956639999058,183.65956639999058,183.8444421000313,space,1,0.16942829999607056,None,183.84748740005307,184.35894910001662,185.35810900002252,185.3420535000041,,,,,,,,,,,,,,,,,008,001,2025-04-30_20h58.00.047,Cued GoNogo Task,2024.2.4,59.72645283510833,2025-04-30 20h58.06.433855 +0200,
block/CondBlock1.xlsx,You are about to start a block of type 1 trials.,48,48,0,NoGo,NoGo,0.15,0.2,0.05,none,blue,vertical,space,1.3258059000363573,None,None,1,,,,,,0,0,0,0,0,48,48,48,185.35810900002252,,,,,,,,,,,,,,,,185.3422603000654,185.35810900002252,186.05853899999056,186.05853899999056,,186.5572256000014,186.55772659997456,186.57409450004343,186.72410320001654,186.90686530002858,186.90686530002858,187.3901730000507,None,1,,,187.391810500063,187.88925330003258,188.88933979999274,188.87232640001457,187.40651350002736,187.40651350002736,,,,,,,,,,,,,,,008,001,2025-04-30_20h58.00.047,Cued GoNogo Task,2024.2.4,59.72645283510833,2025-04-30 20h58.06.433855 +0200,
block/CondBlock1.xlsx,You are about to start a block of type 1 trials.,49,49,0,Go,Go,0.12,0.05,0.2,space,blue,horizontal,space,1.3258059000363573,None,space,1,0.20003970002289861,None,,,,0,0,0,0,0,49,49,49,188.88933979999274,,,,,,,,,,,,,,,,188.87249069998506,188.9051517000189,189.60486129997298,189.60486129997298,190.10502500005532,190.0881529999897,190.08862649998628,190.10502500005532,190.2371894000098,190.4209664000664,190.4209664000664,190.63813380000647,space,1,0.20003970002289861,None,190.64139800006524,191.15450519998558,,192.1531554000685,,,,,,,,,,,,,,,,,008,001,2025-04-30_20h58.00.047,Cued GoNogo Task,2024.2.4,59.72645283510833,2025-04-30 20h58.06.433855 +0200,
block/CondBlock1.xlsx,You are about to start a block of type 1 trials.,50,50,0,Go,Go,0.22,0.2,0.05,space,green,vertical,space,1.3258059000363573,None,space,1,0.16512609994970262,None,,,,0,0,0,0,0,50,50,50,192.1692813000409,,,,,,,,,,,,,,,,192.15345640003216,192.1692813000409,192.85205870005302,192.86858200002462,193.3515440999763,193.33540750003885,193.33583670004737,193.3515440999763,193.584618999972,193.76803110004403,193.76803110004403,193.93637470004614,space,1,0.16512609994970262,None,193.9396141000325,194.45073220005725,195.44970029999968,195.43389500002377,,,,,,,,,,,,,,,,,008,001,2025-04-30_20h58.00.047,Cued GoNogo Task,2024.2.4,59.72645283510833,2025-04-30 20h58.06.433855 +0200,
block/CondBlock1.xlsx,You are about to start a block of type 1 trials.,51,51,0,Go,Go,0.28,0.05,0.2,space,green,horizontal,space,1.3258059000363573,None,space,1,0.16244770004414022,None,,,,0,0,0,0,0,51,51,51,195.44970029999968,,,,,,,,,,,,,,,,195.4340746999951,195.44970029999968,196.1491462000413,196.1491462000413,196.64925360004418,196.63308920001145,196.6336659999797,196.64925360004418,196.9320318000391,197.13206960004754,197.13206960004754,197.29916980001144,space,1,0.16244770004414022,None,197.30225229996722,197.81523139995988,,198.81410029996186,,,,,,,,,,,,,,,,,008,001,2025-04-30_20h58.00.047,Cued GoNogo Task,2024.2.4,59.72645283510833,2025-04-30 20h58.06.433855 +0200,
block/CondBlock1.xlsx,You are about to start a block of type 1 trials.,52,52,0,Go,Go,0.23,0.2,0.05,space,green,vertical,space,1.3258059000363573,None,space,1,0.14534920000005513,None,,,,0,0,0,0,0,52,52,52,198.8304457999766,,,,,,,,,,,,,,,,198.81438270001672,198.8304457999766,199.51347879995592,199.5298198000528,200.01270900003146,199.99675769999158,199.99719270004425,200.01270900003146,200.2463046000339,200.42932750005275,200.42932750005275,200.57984260004014,space,1,0.14534920000005513,None,200.5826597000705,201.09531860006973,202.0945684000617,202.0786911000032,,,,,,,,,,,,,,,,,008,001,2025-04-30_20h58.00.047,Cued GoNogo Task,2024.2.4,59.72645283510833,2025-04-30 20h58.06.433855 +0200,
block/CondBlock1.xlsx,You are about to start a block of type 1 trials.,53,53,0,Go,Go,0.22,0.05,0.2,space,green,horizontal,space,1.3258059000363573,None,space,1,0.13544950005598366,None,,,,0,0,0,0,0,53,53,53,202.0945684000617,,,,,,,,,,,,,,,,202.07894729997497,202.0945684000617,202.79371420003008,202.79371420003008,203.2933188000461,203.27772300003562,203.27813620003872,203.2933188000461,203.52640139998402,203.70965560001787,203.70965560001787,203.86051050003152,space,1,0.13544950005598366,None,203.86438609997276,204.37580949999392,205.3749052999774,205.35915619996376,,,,,,,,,,,,,,,,,008,001,2025-04-30_20h58.00.047,Cued GoNogo Task,2024.2.4,59.72645283510833,2025-04-30 20h58.06.433855 +0200,
block/CondBlock1.xlsx,You are about to start a block of type 1 trials.,54,54,0,NoGo,NoGo,0.14,0.05,0.2,none,green,horizontal,space,1.3258059000363573,None,None,1,,,,,,0,0,0,0,0,54,54,54,205.3749052999774,,,,,,,,,,,,,,,,205.35938729997724,205.3749052999774,206.07439770002384,206.07439770002384,206.57393990003038,206.5577411999693,206.5581599000143,206.57393990003038,206.72393290000036,206.90732330002356,206.90732330002356,207.39076820004266,None,1,,,207.39347690006252,207.90601989999413,208.9054301000433,208.88951929996256,207.40680690004956,207.40680690004956,,,,,,,,,,,,,,,008,001,2025-04-30_20h58.00.047,Cued GoNogo Task,2024.2.4,59.72645283510833,2025-04-30 20h58.06.433855 +0200,
block/CondBlock1.xlsx,You are about to start a block of type 1 trials.,55,55,0,Go,Go,0.15,0.2,0.05,space,blue,vertical,space,1.3258059000363573,None,space,1,0.12865730002522469,None,,,,0,0,0,0,0,55,55,55,208.9054301000433,,,,,,,,,,,,,,,,208.88974260003306,208.9054301000433,209.6046861000359,209.6046861000359,210.10431670001708,210.08837350003887,210.0888495000545,210.10431670001708,210.2542334999889,210.45422800001688,210.45422800001688,210.58839609997813,space,1,0.12865730002522469,None,210.59173720004037,211.1034489000449,212.102635200019,212.08660200005397,,,,,,,,,,,,,,,,,008,001,2025-04-30_20h58.00.047,Cued GoNogo Task,2024.2.4,59.72645283510833,2025-04-30 20h58.06.433855 +0200,
block/CondBlock1.xlsx,You are about to start a block of type 1 trials.,56,56,0,Go,Go,0.47,0.2,0.05,space,blue,vertical,space,1.3258059000363573,None,space,1,0.16568560001906008,None,,,,0,0,0,0,0,56,56,56,212.102635200019,,,,,,,,,,,,,,,,212.086766500026,212.102635200019,212.8020709999837,212.8020709999837,213.30203719995916,213.28649820003193,213.28723570005968,213.30203719995916,213.7848199000582,213.96782370004803,213.96782370004803,214.13696819997858,space,1,0.16568560001906008,None,214.14003790006973,214.6507874999661,215.6497583000455,215.63406569999643,,,,,,,,,,,,,,,,,008,001,2025-04-30_20h58.00.047,Cued GoNogo Task,2024.2.4,59.72645283510833,2025-04-30 20h58.06.433855 +0200,
block/CondBlock1.xlsx,You are about to start a block of type 1 trials.,57,57,0,NoGo,NoGo,0.42,0.2,0.05,none,green,vertical,space,1.3258059000363573,None,None,1,,,,,,0,0,0,0,0,57,57,57,215.6497583000455,,,,,,,,,,,,,,,,215.6342834000243,215.6497583000455,216.34920130006503,216.34920130006503,216.84901240002364,216.8328403000487,216.83333040005527,216.84901240002364,217.2816492000129,217.46545909997076,217.46545909997076,217.94849790004082,None,1,,,217.950308999978,218.44745470001362,219.44673530000728,219.43073010002263,217.96482350002043,217.96482350002043,,,,,,,,,,,,,,,008,001,2025-04-30_20h58.00.047,Cued GoNogo Task,2024.2.4,59.72645283510833,2025-04-30 20h58.06.433855 +0200,
block/CondBlock1.xlsx,You are about to start a block of type 1 trials.,58,58,0,Go,Go,0.22,0.05,0.2,space,green,horizontal,space,1.3258059000363573,None,space,1,0.1428105999948457,None,,,,0,0,0,0,0,58,58,58,219.44673530000728,,,,,,,,,,,,,,,,219.43094420002308,219.4634984000586,220.1637972999597,220.1637972999597,220.66274050006177,220.64720110001508,220.64772590005305,220.66274050006177,220.89539349998813,221.07877779996488,221.07877779996488,221.22962460003328,space,1,0.1428105999948457,None,221.233069500071,221.7447898000246,222.74414640001487,222.72806100000162,,,,,,,,,,,,,,,,,008,001,2025-04-30_20h58.00.047,Cued GoNogo Task,2024.2.4,59.72645283510833,2025-04-30 20h58.06.433855 +0200,
block/CondBlock1.xlsx,You are about to start a block of type 1 trials.,59,59,0,Go,Go,0.3,0.2,0.05,space,blue,vertical,space,1.3258059000363573,None,space,1,0.14793830004055053,None,,,,0,0,0,0,0,59,59,59,222.74414640001487,,,,,,,,,,,,,,,,222.72826400003396,222.74414640001487,223.4434136999771,223.4434136999771,223.94299490004778,223.92716630001087,223.92766990000382,223.94299490004778,224.24263220001012,224.44276400003582,224.44276400003582,224.59369200002402,space,1,0.14793830004055053,None,224.5969718999695,225.10855680005625,226.10793459997512,226.09222370001953,,,,,,,,,,,,,,,,,008,001,2025-04-30_20h58.00.047,Cued GoNogo Task,2024.2.4,59.72645283510833,2025-04-30 20h58.06.433855 +0200,
block/CondBlock1.xlsx,You are about to start a block of type 1 trials.,60,60,0,NoGo,NoGo,0.24,0.2,0.05,none,blue,vertical,space,1.3258059000363573,None,None,1,,,,,,0,0,0,0,0,60,60,60,226.10793459997512,,,,,,,,,,,,,,,,226.09246860002168,226.10793459997512,226.80786239996087,226.80786239996087,227.3072237999877,227.2908389000222,227.2912468999857,227.3072237999877,227.55759940005373,227.73992319998797,227.73992319998797,228.22336060006637,None,1,,,228.2249739000108,228.72244959999807,229.72161320003215,229.705472700065,228.23984030005522,228.23984030005522,,,,,,,,,,,,,,,008,001,2025-04-30_20h58.00.047,Cued GoNogo Task,2024.2.4,59.72645283510833,2025-04-30 20h58.06.433855 +0200,
block/CondBlock1.xlsx,You are about to start a block of type 1 trials.,61,61,0,NoGo,NoGo,0.1,0.2,0.05,none,green,vertical,space,1.3258059000363573,None,None,1,,,,,,0,0,0,0,0,61,61,61,229.72161320003215,,,,,,,,,,,,,,,,229.70566660002805,229.73824209999293,230.43828610004857,230.43828610004857,230.93730610003695,230.9212378000375,230.92173379997257,230.93730610003695,231.03758240002207,231.2375478000613,231.2375478000613,231.72071380005218,None,1,,,231.72107630001847,232.23620839999057,233.23558900004718,233.21982560004108,231.73661719996016,231.73661719996016,,,,,,,,,,,,,,,008,001,2025-04-30_20h58.00.047,Cued GoNogo Task,2024.2.4,59.72645283510833,2025-04-30 20h58.06.433855 +0200,
block/CondBlock1.xlsx,You are about to start a block of type 1 trials.,62,62,0,Go,Go,0.45,0.05,0.2,space,blue,horizontal,space,1.3258059000363573,None,space,1,0.30691240006126463,None,,,,0,0,0,0,0,62,62,62,233.23558900004718,,,,,,,,,,,,,,,,233.22000500001013,233.23558900004718,233.93593100004364,233.93593100004364,,234.43457919999491,234.4351350000361,234.4509874000214,234.90082169999368,235.08402509998996,235.08402509998996,235.40152059996035,space,1,0.30691240006126463,None,235.40466070000548,235.91660720005166,236.9158960999921,236.9001552000409,,,,,,,,,,,,,,,,,008,001,2025-04-30_20h58.00.047,Cued GoNogo Task,2024.2.4,59.72645283510833,2025-04-30 20h58.06.433855 +0200,
block/CondBlock1.xlsx,You are about to start a block of type 1 trials.,63,63,0,Go,Go,0.1,0.05,0.2,space,green,horizontal,space,1.3258059000363573,None,space,1,0.13519850000739098,None,,,,0,0,0,0,0,63,63,63,236.9158960999921,,,,,,,,,,,,,,,,236.90042149997316,236.9158960999921,237.61508799996227,237.61508799996227,238.11456390004605,238.09857899998315,238.09902119997423,238.11456390004605,238.21469839999918,238.41442980000284,238.41442980000284,238.56530959997326,space,1,0.13519850000739098,None,238.56833180005196,239.08056360005867,240.07986629998777,240.0638617000077,,,,,,,,,,,,,,,,,008,001,2025-04-30_20h58.00.047,Cued GoNogo Task,2024.2.4,59.72645283510833,2025-04-30 20h58.06.433855 +0200,
block/CondBlock1.xlsx,You are about to start a block of type 1 trials.,64,64,0,Go,Go,0.19,0.05,0.2,space,blue,horizontal,space,1.3258059000363573,None,space,1,0.1282225000904873,None,,,,0,0,0,0,0,64,64,64,240.07986629998777,,,,,,,,,,,,,,,,240.06410259997938,240.07986629998777,240.77905570005532,240.77905570005532,241.2787723999936,241.26288749999367,241.2634398000082,241.2787723999936,241.47887300001457,241.6616746999789,241.6616746999789,241.7961351000704,space,1,0.1282225000904873,None,241.79884070006665,242.31167199998163,,243.31031730002724,,,,,,,,,,,,,,,,,008,001,2025-04-30_20h58.00.047,Cued GoNogo Task,2024.2.4,59.72645283510833,2025-04-30 20h58.06.433855 +0200,
block/CondBlock1.xlsx,You are about to start a block of type 1 trials.,65,65,0,Go,Go,0.21,0.2,0.05,space,blue,vertical,space,1.3258059000363573,None,space,1,0.1448872999753803,None,,,,0,0,0,0,0,65,65,65,243.32700309995562,,,,,,,,,,,,,,,,243.31060209998395,243.32700309995562,244.00996669998858,244.02659620007034,244.50952309998684,244.49347930005752,244.49393360002432,244.50952309998684,244.72629520006012,244.90928909997456,244.90928909997456,245.0601360000437,space,1,0.1448872999753803,None,245.06318130006548,245.5751618000213,246.57422579999547,246.5583054999588,,,,,,,,,,,,,,,,,008,001,2025-04-30_20h58.00.047,Cued GoNogo Task,2024.2.4,59.72645283510833,2025-04-30 20h58.06.433855 +0200,
block/CondBlock1.xlsx,You are about to start a block of type 1 trials.,66,66,0,Go,Go,0.18,0.05,0.2,space,blue,horizontal,space,1.3258059000363573,None,space,1,0.22442679991945624,None,,,,0,0,0,0,0,66,66,66,246.57422579999547,,,,,,,,,,,,,,,,246.55850280006416,246.57422579999547,247.27397219999693,247.27397219999693,247.7736367000034,247.75764960004017,247.75816530000884,247.7736367000034,247.95685720001347,248.14084370003548,248.14084370003548,248.37383299996145,space,1,0.22442679991945624,None,248.3767278000014,248.89034050004557,,249.88847150001675,,,,,,,,,,,,,,,,,008,001,2025-04-30_20h58.00.047,Cued GoNogo Task,2024.2.4,59.72645283510833,2025-04-30 20h58.06.433855 +0200,
block/CondBlock1.xlsx,You are about to start a block of type 1 trials.,67,67,0,Go,Go,0.29,0.2,0.05,space,green,vertical,space,1.3258059000363573,None,space,1,0.11578920006286353,None,,,,0,0,0,0,0,67,67,67,249.90481500001624,,,,,,,,,,,,,,,,249.88876250002068,249.90481500001624,250.58807499997783,250.6044548000209,251.08725900005084,251.07124850002583,251.07174809998833,251.08725900005084,251.38720640004613,251.57038529997226,251.57038529997226,251.6883811999578,space,1,0.11578920006286353,None,251.69154250004794,252.20305030001327,253.20257840002887,253.1861782000633,,,,,,,,,,,,,,,,,008,001,2025-04-30_20h58.00.047,Cued GoNogo Task,2024.2.4,59.72645283510833,2025-04-30 20h58.06.433855 +0200,
block/CondBlock1.xlsx,You are about to start a block of type 1 trials.,68,68,0,NoGo,NoGo,0.24,0.2,0.05,none,blue,vertical,space,1.3258059000363573,None,space,0,0.18806790001690388,None,,,,0,0,0,0,0,68,68,68,253.20257840002887,,,,,,,,,,,,,,,,253.18640550004784,253.20257840002887,253.90176739997696,253.90176739997696,254.4013042000588,254.38520789996255,254.3856779000489,254.4013042000588,254.65099800005555,254.83430019998923,254.83430019998923,255.0353882999625,space,0,0.18806790001690388,None,255.04314590001013,255.5503205000423,256.5494433999993,256.5337729000021,,,,,,,,,,,,,,,,,008,001,2025-04-30_20h58.00.047,Cued GoNogo Task,2024.2.4,59.72645283510833,2025-04-30 20h58.06.433855 +0200,
block/CondBlock1.xlsx,You are about to start a block of type 1 trials.,69,69,0,Go,Go,0.27,0.05,0.2,space,green,horizontal,space,1.3258059000363573,None,space,1,0.126279600081034,None,,,,0,0,0,0,0,69,69,69,256.5494433999993,,,,,,,,,,,,,,,,256.53399210004136,256.5494433999993,257.24909870000556,257.24909870000556,257.748606499983,257.7324384000385,257.73291230003815,257.748606499983,258.0317243000027,258.21505350002553,258.21505350002553,258.34954560000915,space,1,0.126279600081034,None,258.3526823000284,258.84774250001647,259.84674950002227,259.83093100006226,,,,,,,,,,,,,,,,,008,001,2025-04-30_20h58.00.047,Cued GoNogo Task,2024.2.4,59.72645283510833,2025-04-30 20h58.06.433855 +0200,
block/CondBlock1.xlsx,You are about to start a block of type 1 trials.,70,70,0,Go,Go,0.25,0.2,0.05,space,green,vertical,space,1.3258059000363573,None,space,1,0.10105539998039603,None,,,,0,0,0,0,0,70,70,70,259.84674950002227,,,,,,,,,,,,,,,,259.83116830000654,259.8634474000428,260.56318060006015,260.56318060006015,261.0630339999916,261.04755120002665,261.04810819996055,261.0630339999916,261.3122975999722,261.51222220005,261.51222220005,261.6295446000295,space,1,0.10105539998039603,None,261.6320655000163,262.14584310003556,,263.14512650005054,,,,,,,,,,,,,,,,,008,001,2025-04-30_20h58.00.047,Cued GoNogo Task,2024.2.4,59.72645283510833,2025-04-30 20h58.06.433855 +0200,
block/CondBlock1.xlsx,You are about to start a block of type 1 trials.,71,71,0,Go,Go,0.28,0.05,0.2,space,green,horizontal,space,1.3258059000363573,None,space,1,0.14057839999441057,None,,,,0,0,0,0,0,71,71,71,263.1606898000464,,,,,,,,,,,,,,,,263.14538360002916,263.1606898000464,263.84376930003054,263.86037839995697,264.3431281000376,264.3274778999621,264.32794920005836,264.3431281000376,264.62625700002536,264.80931210005656,264.80931210005656,264.9602346000029,space,1,0.14057839999441057,None,264.96290370007046,265.45901740004774,266.4580046000192,266.44270370004233,,,,,,,,,,,,,,,,,008,001,2025-04-30_20h58.00.047,Cued GoNogo Task,2024.2.4,59.72645283510833,2025-04-30 20h58.06.433855 +0200,
block/CondBlock1.xlsx,You are about to start a block of type 1 trials.,72,72,0,Go,Go,0.14,0.05,0.2,space,blue,horizontal,space,1.3258059000363573,None,space,1,0.1349346999777481,None,,,,0,0,0,0,0,72,72,72,266.4580046000192,,,,,,,,,,,,,,,,266.4429309000261,266.4746967999963,267.1741188999731,267.1741188999731,267.67358760000207,267.6577461999841,267.65814760001376,267.67358760000207,267.8232087000506,268.00669730000664,268.00669730000664,268.15856929996517,space,1,0.1349346999777481,None,268.1614080000436,268.6729874999728,269.6722424000036,269.65629720001016,,,,,,,,,,,,,,,,,008,001,2025-04-30_20h58.00.047,Cued GoNogo Task,2024.2.4,59.72645283510833,2025-04-30 20h58.06.433855 +0200,
block/CondBlock1.xlsx,You are about to start a block of type 1 trials.,73,73,0,Go,Go,0.11,0.05,0.2,space,blue,horizontal,space,1.3258059000363573,None,space,1,0.12870449991896749,None,,,,0,0,0,0,0,73,73,73,269.6722424000036,,,,,,,,,,,,,,,,269.65655620000325,269.6722424000036,270.37163830001373,270.37163830001373,270.87101390003227,270.854940899997,270.8553998999996,270.87101390003227,270.98794919997454,271.17242469999474,271.17242469999474,271.3050837999908,space,1,0.12870449991896749,None,271.3078065000009,271.8037116000196,272.8026415000204,272.7866743999766,,,,,,,,,,,,,,,,,008,001,2025-04-30_20h58.00.047,Cued GoNogo Task,2024.2.4,59.72645283510833,2025-04-30 20h58.06.433855 +0200,
block/CondBlock1.xlsx,You are about to start a block of type 1 trials.,74,74,0,Go,Go,0.22,0.2,0.05,space,blue,vertical,space,1.3258059000363573,None,space,1,0.12202150002121925,None,,,,0,0,0,0,0,74,74,74,272.8026415000204,,,,,,,,,,,,,,,,272.78683530003764,272.8194445000263,273.51897590002045,273.51897590002045,274.0185634000227,274.0025594000472,274.0029520000098,274.0185634000227,274.2515457000118,274.4350251000142,274.4350251000142,274.5687779999571,space,1,0.12202150002121925,None,274.57151599996723,275.0857290000422,,276.0836651000427,,,,,,,,,,,,,,,,,008,001,2025-04-30_20h58.00.047,Cued GoNogo Task,2024.2.4,59.72645283510833,2025-04-30 20h58.06.433855 +0200,
block/CondBlock1.xlsx,You are about to start a block of type 1 trials.,75,75,0,Go,Go,0.26,0.05,0.2,space,blue,horizontal,space,1.3258059000363573,None,space,1,0.1537377000786364,None,,,,0,0,0,0,0,75,75,75,276.10021080006845,,,,,,,,,,,,,,,,276.08389989996795,276.10021080006845,276.78303589997813,276.79933559999336,277.28235310001764,277.26642999995966,277.26683570002206,277.28235310001764,277.5489130000351,277.73224939999636,277.73224939999636,277.8995078000007,space,1,0.1537377000786364,None,277.9025485999882,278.4149057000177,279.41417160001583,279.39789100002963,,,,,,,,,,,,,,,,,008,001,2025-04-30_20h58.00.047,Cued GoNogo Task,2024.2.4,59.72645283510833,2025-04-30 20h58.06.433855 +0200,
block/CondBlock1.xlsx,You are about to start a block of type 1 trials.,76,76,0,Go,Go,0.14,0.2,0.05,space,green,vertical,space,1.3258059000363573,None,space,1,0.17117520002648234,None,,,,0,0,0,0,0,76,76,76,279.41417160001583,,,,,,,,,,,,,,,,279.39805550000165,279.41417160001583,280.1137033000123,280.1137033000123,280.6130408999743,280.5967945000157,280.5972364000045,280.6130408999743,280.76286320004147,280.9459854000015,280.9459854000015,281.1303014999721,space,1,0.17117520002648234,None,281.1339664000552,281.6457785000093,282.64488579996396,282.62897129997145,,,,,,,,,,,,,,,,,008,001,2025-04-30_20h58.00.047,Cued GoNogo Task,2024.2.4,59.72645283510833,2025-04-30 20h58.06.433855 +0200,
block/CondBlock1.xlsx,You are about to start a block of type 1 trials.,77,77,0,Go,Go,0.18,0.05,0.2,space,green,horizontal,space,1.3258059000363573,None,None,0,,,,,,0,0,0,0,0,77,77,77,282.64488579996396,,,,,,,,,,,,,,,,282.6291532999603,282.64488579996396,283.34511650004424,283.34511650004424,,283.84399980003946,283.8444221999962,283.86091899999883,284.0437789000571,284.2101403999841,284.2101403999841,284.6938065000577,None,0,,,284.69732300005853,285.20939460000955,286.20833070005756,286.1934262999566,284.71096449997276,284.71096449997276,,,,,,,,,,,,,,,008,001,2025-04-30_20h58.00.047,Cued GoNogo Task,2024.2.4,59.72645283510833,2025-04-30 20h58.06.433855 +0200,
block/CondBlock1.xlsx,You are about to start a block of type 1 trials.,78,78,0,NoGo,NoGo,0.27,0.05,0.2,none,blue,horizontal,space,1.3258059000363573,None,None,1,,,,,,0,0,0,0,0,78,78,78,286.20833070005756,,,,,,,,,,,,,,,,286.1935989999911,286.20833070005756,286.9081056000432,286.9081056000432,287.40726670005824,287.3912166999653,287.39163860003464,287.40726670005824,287.6902552000247,287.8735230000457,287.8735230000457,288.3572392000351,None,1,,,288.35936840006616,288.8560689999722,289.8557671000017,289.8393861000659,288.37307500001043,288.37307500001043,,,,,,,,,,,,,,,008,001,2025-04-30_20h58.00.047,Cued GoNogo Task,2024.2.4,59.72645283510833,2025-04-30 20h58.06.433855 +0200,
block/CondBlock1.xlsx,You are about to start a block of type 1 trials.,79,79,0,NoGo,NoGo,0.26,0.2,0.05,none,blue,vertical,space,1.3258059000363573,None,space,0,0.39666560001205653,None,,,,0,0,0,0,0,79,79,79,289.8557671000017,,,,,,,,,,,,,,,,289.8395643000258,289.87225090002175,290.57178140000906,290.57178140000906,291.0713115000399,291.0550912000472,291.05557510000654,291.0713115000399,291.33761419996154,291.52086739998776,291.52086739998776,291.9217339999741,space,0,0.39666560001205653,None,291.9267605000641,292.41981180000585,293.41924149997067,293.40398030006327,,,,,,,,,,,,,,,,,008,001,2025-04-30_20h58.00.047,Cued GoNogo Task,2024.2.4,59.72645283510833,2025-04-30 20h58.06.433855 +0200,
block/CondBlock1.xlsx,You are about to start a block of type 1 trials.,80,80,0,Go,Go,0.22,0.2,0.05,space,green,vertical,space,1.3258059000363573,None,space,1,0.10795769991818815,None,,,,0,0,0,0,0,80,80,80,293.41924149997067,,,,,,,,,,,,,,,,293.4042280999711,293.4359945000615,294.1352913000155,294.1352913000155,294.6349737000419,294.6196629999904,294.6202442999929,294.6349737000419,294.8681620999705,295.0510927999858,295.0510927999858,295.1687773000449,space,1,0.10795769991818815,None,295.1718860999681,295.6841288000578,296.6832864000462,296.667049700045,,,,,,,,,,,,,,,,,008,001,2025-04-30_20h58.00.047,Cued GoNogo Task,2024.2.4,59.72645283510833,2025-04-30 20h58.06.433855 +0200,
block/CondBlock1.xlsx,You are about to start a block of type 1 trials.,81,81,0,Go,Go,0.5,0.2,0.05,space,green,vertical,space,1.3258059000363573,None,space,1,0.1758159000892192,None,,,,0,0,0,0,0,81,81,81,296.6832864000462,,,,,,,,,,,,,,,,296.6672421999974,296.6832864000462,297.38265379995573,297.38265379995573,297.8821569000138,297.86599850002676,297.8664017000701,297.8821569000138,298.3817726999987,298.5826614999678,298.5826614999678,298.7657416999573,space,1,0.1758159000892192,None,298.7690066000214,299.2811422999948,,300.2807054000441,,,,,,,,,,,,,,,,,008,001,2025-04-30_20h58.00.047,Cued GoNogo Task,2024.2.4,59.72645283510833,2025-04-30 20h58.06.433855 +0200,
block/CondBlock1.xlsx,You are about to start a block of type 1 trials.,82,82,0,Go,Go,0.43,0.05,0.2,space,green,horizontal,space,1.3258059000363573,None,space,1,0.15817280008923262,None,,,,0,0,0,0,0,82,82,82,300.2968283999944,,,,,,,,,,,,,,,,300.280933800037,300.2968283999944,300.9795643000398,300.9964952999726,301.47919700003695,301.4630302999867,301.4634950000327,301.47919700003695,301.9123381000245,302.09660459996667,302.09660459996667,302.26291699998546,space,1,0.15817280008923262,None,302.2666361000156,302.7783463000087,,303.77763370005414,,,,,,,,,,,,,,,,,008,001,2025-04-30_20h58.00.047,Cued GoNogo Task,2024.2.4,59.72645283510833,2025-04-30 20h58.06.433855 +0200,
block/CondBlock1.xlsx,You are about to start a block of type 1 trials.,83,83,0,Go,Go,0.25,0.2,0.05,space,green,vertical,space,1.3258059000363573,None,space,1,0.09935300005599856,None,,,,0,0,0,0,0,83,83,83,303.7940984000452,,,,,,,,,,,,,,,,303.7779115999583,303.7940984000452,304.476833099965,304.49371720000636,304.97614300006535,304.9607473000651,304.9615245000459,304.97614300006535,305.2265705000609,305.42616739997175,305.42616739997175,305.52811569999903,space,1,0.09935300005599856,None,305.5311531999614,306.0420569999842,307.041305599967,307.0252577000065,,,,,,,,,,,,,,,,,008,001,2025-04-30_20h58.00.047,Cued GoNogo Task,2024.2.4,59.72645283510833,2025-04-30 20h58.06.433855 +0200,
block/CondBlock1.xlsx,You are about to start a block of type 1 trials.,84,84,0,NoGo,NoGo,0.14,0.2,0.05,none,green,vertical,space,1.3258059000363573,None,None,1,,,,,,0,0,0,0,0,84,84,84,307.041305599967,,,,,,,,,,,,,,,,307.0254294000333,307.041305599967,307.7407539000269,307.7407539000269,308.24065569997765,308.2242459000554,308.2247226999607,308.24065569997765,308.39041300001554,308.5736988000572,308.5736988000572,309.0570893000113,None,1,,,309.0590138999978,309.5726124000503,310.5716362000676,310.55586510000285,309.0728816000046,309.0728816000046,,,,,,,,,,,,,,,008,001,2025-04-30_20h58.00.047,Cued GoNogo Task,2024.2.4,59.72645283510833,2025-04-30 20h58.06.433855 +0200,
block/CondBlock1.xlsx,You are about to start a block of type 1 trials.,85,85,0,Go,Go,0.2,0.05,0.2,space,blue,horizontal,space,1.3258059000363573,None,space,1,0.12344900006428361,None,,,,0,0,0,0,0,85,85,85,310.5716362000676,,,,,,,,,,,,,,,,310.5561376999831,310.5716362000676,311.27142450003885,311.27142450003885,311.7709089999553,311.7549824999878,311.75552859995514,311.7709089999553,311.97049500001594,312.17074480000883,312.17074480000883,312.30472869996447,space,1,0.12344900006428361,None,312.30798559996765,312.8199185000267,313.81912969995756,313.80303329997696,,,,,,,,,,,,,,,,,008,001,2025-04-30_20h58.00.047,Cued GoNogo Task,2024.2.4,59.72645283510833,2025-04-30 20h58.06.433855 +0200,
block/CondBlock1.xlsx,You are about to start a block of type 1 trials.,86,86,0,Go,Go,0.16,0.2,0.05,space,blue,vertical,space,1.3258059000363573,None,space,1,0.18133049993775785,None,,,,0,0,0,0,0,86,86,86,313.81912969995756,,,,,,,,,,,,,,,,313.80323770001996,313.81912969995756,314.51862610003445,314.51862610003445,315.0181915999856,315.00200860004406,315.0024667000398,315.0181915999856,315.18551520002075,315.3678780000191,315.3678780000191,315.552962900023,space,1,0.18133049993775785,None,315.55570450006053,316.0674277000362,317.06653109996114,317.05046439997386,,,,,,,,,,,,,,,,,008,001,2025-04-30_20h58.00.047,Cued GoNogo Task,2024.2.4,59.72645283510833,2025-04-30 20h58.06.433855 +0200,
block/CondBlock1.xlsx,You are about to start a block of type 1 trials.,87,87,0,Go,Go,0.41,0.2,0.05,space,green,vertical,space,1.3258059000363573,None,None,0,,,,,,0,0,0,0,0,87,87,87,317.06653109996114,,,,,,,,,,,,,,,,317.05066549999174,317.06653109996114,317.76617850002367,317.76617850002367,318.2664514000062,318.2494750999613,318.2499212999828,318.2664514000062,318.68187129998114,318.864911200013,318.864911200013,319.3485877000494,None,0,,,319.35046300000977,319.8642559000291,320.8636095999973,320.84737390000373,319.3645488000475,319.3645488000475,,,,,,,,,,,,,,,008,001,2025-04-30_20h58.00.047,Cued GoNogo Task,2024.2.4,59.72645283510833,2025-04-30 20h58.06.433855 +0200,
block/CondBlock1.xlsx,You are about to start a block of type 1 trials.,88,88,0,NoGo,NoGo,0.15,0.2,0.05,none,green,vertical,space,1.3258059000363573,None,None,1,,,,,,0,0,0,0,0,88,88,88,320.8636095999973,,,,,,,,,,,,,,,,320.8476287999656,320.8636095999973,321.5627097999677,321.5627097999677,322.0626657999819,322.0462051000213,322.0466541000642,322.0626657999819,322.2127834999701,322.4119946999708,322.4119946999708,322.8954372999724,None,1,,,322.8972863999661,323.3944397000596,324.3937394999666,324.37784199998714,322.91166029998567,322.91166029998567,,,,,,,,,,,,,,,008,001,2025-04-30_20h58.00.047,Cued GoNogo Task,2024.2.4,59.72645283510833,2025-04-30 20h58.06.433855 +0200,
block/CondBlock1.xlsx,You are about to start a block of type 1 trials.,89,89,0,Go,Go,0.24,0.05,0.2,space,blue,horizontal,space,1.3258059000363573,None,space,1,0.2682077999925241,None,,,,0,0,0,0,0,89,89,89,324.3937394999666,,,,,,,,,,,,,,,,324.3780422999989,324.4105353000341,325.10989049996715,325.10989049996715,325.6093965000473,325.59377619996667,325.59436019998975,325.6093965000473,325.85933110001497,326.04234379995614,326.04234379995614,326.326557100052,space,1,0.2682077999925241,None,326.32937270007096,326.8425462000305,,327.84120010002516,,,,,,,,,,,,,,,,,008,001,2025-04-30_20h58.00.047,Cued GoNogo Task,2024.2.4,59.72645283510833,2025-04-30 20h58.06.433855 +0200,
block/CondBlock1.xlsx,You are about to start a block of type 1 trials.,90,90,0,Go,Go,0.25,0.2,0.05,space,blue,vertical,space,1.3258059000363573,None,space,1,0.1875307000009343,None,,,,0,0,0,0,0,90,90,90,327.8575848999899,,,,,,,,,,,,,,,,327.8414677999681,327.8575848999899,328.54037900001276,328.5570987999672,329.04051379999146,329.02411390002817,329.0245647999691,329.04051379999146,329.29002299997956,329.4895291000139,329.4895291000139,329.69057740003336,space,1,0.1875307000009343,None,329.6934054000303,330.1888414999703,331.1897131999722,331.17264949996024,,,,,,,,,,,,,,,,,008,001,2025-04-30_20h58.00.047,Cued GoNogo Task,2024.2.4,59.72645283510833,2025-04-30 20h58.06.433855 +0200,
block/CondBlock1.xlsx,You are about to start a block of type 1 trials.,91,91,0,Go,Go,0.26,0.05,0.2,space,green,horizontal,space,1.3258059000363573,None,space,1,0.1214268000330776,None,,,,0,0,0,0,0,91,91,91,331.1897131999722,,,,,,,,,,,,,,,,331.1728726000292,331.2052451999625,331.9042100000661,331.9210344000021,332.40352389996406,332.38810019998346,332.38888940005563,332.40352389996406,332.6703350000316,332.85339000006206,332.85339000006206,332.98768350004684,space,1,0.1214268000330776,None,332.9917523000622,333.5028307000175,334.5022545000538,334.4862942000618,,,,,,,,,,,,,,,,,008,001,2025-04-30_20h58.00.047,Cued GoNogo Task,2024.2.4,59.72645283510833,2025-04-30 20h58.06.433855 +0200,
block/CondBlock1.xlsx,You are about to start a block of type 1 trials.,92,92,0,NoGo,NoGo,0.44,0.2,0.05,none,blue,vertical,space,1.3258059000363573,None,None,1,,,,,,0,0,0,0,0,92,92,92,334.5022545000538,,,,,,,,,,,,,,,,334.48648219997995,334.5022545000538,335.2037358999951,335.2037358999951,,335.70116579998285,335.7016540999757,335.7178250000579,336.1679087000666,336.33403390005697,336.33403390005697,336.8175351000391,None,1,,,336.81944440002553,337.3175257999683,338.3323445999995,338.31616970000323,336.83365899999626,336.83365899999626,,,,,,,,,,,,,,,008,001,2025-04-30_20h58.00.047,Cued GoNogo Task,2024.2.4,59.72645283510833,2025-04-30 20h58.06.433855 +0200,
block/CondBlock1.xlsx,You are about to start a block of type 1 trials.,93,93,0,Go,Go,0.13,0.2,0.05,space,green,vertical,space,1.3258059000363573,None,space,1,0.14219129993580282,None,,,,0,0,0,0,0,93,93,93,338.3323445999995,,,,,,,,,,,,,,,,338.3163642999716,338.3323445999995,339.0317025000695,339.0317025000695,339.53124549996573,339.51510870002676,339.5157862000633,339.53124549996573,339.6645298000658,339.84783590002917,339.84783590002917,339.99837509996723,space,1,0.14219129993580282,None,340.0022441999754,340.5142851000419,,341.51301150000654,,,,,,,,,,,,,,,,,008,001,2025-04-30_20h58.00.047,Cued GoNogo Task,2024.2.4,59.72645283510833,2025-04-30 20h58.06.433855 +0200,
block/CondBlock1.xlsx,You are about to start a block of type 1 trials.,94,94,0,Go,Go,0.44,0.05,0.2,space,blue,horizontal,space,1.3258059000363573,None,space,1,0.1880467999726534,None,,,,0,0,0,0,0,94,94,94,341.5296032000333,,,,,,,,,,,,,,,,341.5132397999987,341.5296032000333,342.21315570001025,342.2293140999973,342.71208720002323,342.6972271000268,342.6978800999932,342.71208720002323,343.1620995000703,343.34560620004777,343.34560620004777,343.5456575000426,space,1,0.1880467999726534,None,343.5487480000593,344.061004600022,345.06027100002393,345.0443697000155,,,,,,,,,,,,,,,,,008,001,2025-04-30_20h58.00.047,Cued GoNogo Task,2024.2.4,59.72645283510833,2025-04-30 20h58.06.433855 +0200,
block/CondBlock1.xlsx,You are about to start a block of type 1 trials.,95,95,0,Go,Go,0.15,0.2,0.05,space,green,vertical,space,1.3258059000363573,None,space,1,0.12518350000027567,None,,,,0,0,0,0,0,95,95,95,345.06027100002393,,,,,,,,,,,,,,,,345.0446150000207,345.06027100002393,345.7595828999765,345.7595828999765,346.2595081999898,346.24319169996306,346.2436257000081,346.2595081999898,346.40942160005216,346.6089184000157,346.6089184000157,346.74296529998537,space,1,0.12518350000027567,None,346.7459359000204,347.25831740000285,348.2575047999853,348.242745900061,,,,,,,,,,,,,,,,,008,001,2025-04-30_20h58.00.047,Cued GoNogo Task,2024.2.4,59.72645283510833,2025-04-30 20h58.06.433855 +0200,
block/CondBlock1.xlsx,You are about to start a block of type 1 trials.,96,96,0,Go,Go,0.49,0.2,0.05,space,green,vertical,space,1.3258059000363573,None,space,1,0.2260841999668628,None,,,,0,0,0,0,0,96,96,96,348.2575047999853,,,,,,,,,,,,,,,,348.24300650006626,348.2575047999853,348.9568033000687,348.9568033000687,349.45631340006366,349.4407713999972,349.4411933000665,349.45631340006366,349.9559932000702,350.13944269996136,350.13944269996136,350.3735929999966,space,1,0.2260841999668628,None,350.37684539996553,350.88849579996895,351.8880584000144,351.8716260000365,,,,,,,,,,,,,,,,,008,001,2025-04-30_20h58.00.047,Cued GoNogo Task,2024.2.4,59.72645283510833,2025-04-30 20h58.06.433855 +0200,
block/CondBlock1.xlsx,You are about to start a block of type 1 trials.,97,97,0,Go,Go,0.11,0.2,0.05,space,blue,vertical,space,1.3258059000363573,None,space,1,0.1793224000139162,None,,,,0,0,0,0,0,97,97,97,351.8880584000144,,,,,,,,,,,,,,,,351.87179820006713,351.8880584000144,352.58829850004986,352.58829850004986,,353.08682009996846,353.08731169998646,353.103592999978,353.219972699997,353.38670979999006,353.38670979999006,353.5706853000447,space,1,0.1793224000139162,None,353.573379999958,354.08588669996243,355.084958499996,355.06921880005393,,,,,,,,,,,,,,,,,008,001,2025-04-30_20h58.00.047,Cued GoNogo Task,2024.2.4,59.72645283510833,2025-04-30 20h58.06.433855 +0200,
block/CondBlock1.xlsx,You are about to start a block of type 1 trials.,98,98,0,Go,Go,0.26,0.05,0.2,space,green,horizontal,space,1.3258059000363573,None,space,1,0.17591119999997318,None,,,,0,0,0,0,0,98,98,98,355.084958499996,,,,,,,,,,,,,,,,355.06943040003534,355.084958499996,355.78469020000193,355.78469020000193,356.2846031000372,356.2683836000506,356.26890290004667,356.2846031000372,356.5505989000667,356.73404030001257,356.73404030001257,356.91783429996576,space,1,0.17591119999997318,None,356.92058360006195,357.4332312999759,358.4325208000373,358.41624160006177,,,,,,,,,,,,,,,,,008,001,2025-04-30_20h58.00.047,Cued GoNogo Task,2024.2.4,59.72645283510833,2025-04-30 20h58.06.433855 +0200,
block/CondBlock1.xlsx,You are about to start a block of type 1 trials.,99,99,0,Go,Go,0.28,0.05,0.2,space,green,horizontal,space,1.3258059000363573,None,space,1,0.17977170005906373,None,,,,0,0,0,0,0,99,99,99,358.4325208000373,,,,,,,,,,,,,,,,358.4164223000407,358.4325208000373,359.13177129998803,359.13177129998803,359.63153560005594,359.61574030003976,359.6163484000135,359.63153560005594,359.91448589996435,360.09787709999364,360.09787709999364,360.2824864999857,space,1,0.17977170005906373,None,360.28659030003473,360.7972946000518,361.7966466000071,361.78038879996166,,,,,,,,,,,,,,,,,008,001,2025-04-30_20h58.00.047,Cued GoNogo Task,2024.2.4,59.72645283510833,2025-04-30 20h58.06.433855 +0200,
block/CondBlock1.xlsx,You are about to start a block of type 1 trials.,0,0,0,,,,,,,,,space,1.3258059000363573,None,,,,,space,0.5373353000031784,None,0,0,0,0,,,,,,,,,,,,,,,,,,,,,,,,,,,,,,,,,,,,,,,,,,,361.7929835000541,361.7966466000071,361.7966466000071,362.3468271000311,space,0.5373353000031784,None,,,,,,,,008,001,2025-04-30_20h58.00.047,Cued GoNogo Task,2024.2.4,59.72645283510833,2025-04-30 20h58.06.433855 +0200,
block/CondBlock2.xlsx,You are about to start a block of type 2 trials.,0,0,0,Go,Go,0.18,0.05,0.2,space,green,horizontal,space,268.651674700086,None,space,1,0.16815579996909946,None,,,,0,1,1,1,0,0,0,0,631.0482214000076,,,,,,,,,362.3498278000625,362.36254480003845,362.36254480003845,631.024649900035,space,268.651674700086,None,631.0452555000084,631.0482214000076,631.7395872999914,631.7562146000564,632.2392215,632.2233168999664,632.2240720000118,632.2392215,632.4223964000121,632.6055374999996,632.6055374999996,632.7906036999775,space,1,0.16815579996909946,None,632.7965257000178,633.3049389000516,634.3041556000244,634.2886206000112,,,,,,,,,,,,,,,,,008,001,2025-04-30_20h58.00.047,Cued GoNogo Task,2024.2.4,59.72645283510833,2025-04-30 20h58.06.433855 +0200,
block/CondBlock2.xlsx,You are about to start a block of type 2 trials.,1,1,0,Go,Go,0.2,0.2,0.05,space,green,vertical,space,268.651674700086,None,space,1,0.15997120004612952,None,,,,0,1,1,1,0,1,1,1,634.3041556000244,,,,,,,,,,,,,,,,634.2890618999954,634.3041556000244,635.0035957000218,635.0035957000218,635.502936600009,635.4869308000198,635.4875088999979,635.502936600009,635.7027858999791,635.9025342999958,635.9025342999958,636.0704013999784,space,1,0.15997120004612952,None,636.0753556999844,636.5854191000108,637.5845858000685,637.5686227000551,,,,,,,,,,,,,,,,,008,001,2025-04-30_20h58.00.047,Cued GoNogo Task,2024.2.4,59.72645283510833,2025-04-30 20h58.06.433855 +0200,
block/CondBlock2.xlsx,You are about to start a block of type 2 trials.,2,2,0,Go,Go,0.22,0.05,0.2,space,blue,horizontal,space,268.651674700086,None,space,1,0.1426927000284195,None,,,,0,1,1,1,0,2,2,2,637.5845858000685,,,,,,,,,,,,,,,,637.5688825000543,637.5845858000685,638.2841429000255,638.2841429000255,638.7835815000581,638.7674877999816,638.7679094000487,638.7835815000581,639.0167383999797,639.1999559999676,639.1999559999676,639.3511291999603,space,1,0.1426927000284195,None,639.3548511000117,639.866148000001,640.8652674000477,640.8495311000152,,,,,,,,,,,,,,,,,008,001,2025-04-30_20h58.00.047,Cued GoNogo Task,2024.2.4,59.72645283510833,2025-04-30 20h58.06.433855 +0200,
block/CondBlock2.xlsx,You are about to start a block of type 2 trials.,3,3,0,Go,Go,0.14,0.05,0.2,space,green,horizontal,space,268.651674700086,None,space,1,0.12920000008307397,None,,,,0,1,1,1,0,3,3,3,640.8652674000477,,,,,,,,,,,,,,,,640.8498015999794,640.8652674000477,641.5646210999694,641.5646210999694,642.0643241000362,642.0486842000391,642.0494722999865,642.0643241000362,642.2142024000641,642.3973143000621,642.3973143000621,642.5315474000527,space,1,0.12920000008307397,None,642.5351800000062,643.046950399992,644.0460715000518,644.0299532000208,,,,,,,,,,,,,,,,,008,001,2025-04-30_20h58.00.047,Cued GoNogo Task,2024.2.4,59.72645283510833,2025-04-30 20h58.06.433855 +0200,
block/CondBlock2.xlsx,You are about to start a block of type 2 trials.,4,4,0,Go,Go,0.26,0.05,0.2,space,blue,horizontal,space,268.651674700086,None,space,1,0.1511291000060737,None,,,,0,1,1,1,0,4,4,4,644.0460715000518,,,,,,,,,,,,,,,,644.0301470999839,644.0460715000518,644.7453856000211,644.7453856000211,645.2450664000353,645.2290676999837,645.2298363000154,645.2450664000353,645.5113568999805,645.6946759000421,645.6946759000421,645.8624686000403,space,1,0.1511291000060737,None,645.866204699967,646.3773990999907,647.3766281000571,647.3607818000019,,,,,,,,,,,,,,,,,008,001,2025-04-30_20h58.00.047,Cued GoNogo Task,2024.2.4,59.72645283510833,2025-04-30 20h58.06.433855 +0200,
block/CondBlock2.xlsx,You are about to start a block of type 2 trials.,5,5,0,Go,Go,0.1,0.05,0.2,space,blue,horizontal,space,268.651674700086,None,space,1,0.1299593000439927,None,,,,0,1,1,1,0,5,5,5,647.3766281000571,,,,,,,,,,,,,,,,647.3611827000277,647.3766281000571,648.0760284999851,648.0760284999851,648.5754867000505,648.5595176999923,648.5601722999709,648.5754867000505,648.6754717000294,648.8753593000583,648.8753593000583,649.0096826000372,space,1,0.1299593000439927,None,649.0134262000211,649.5247667999938,650.5239400999853,650.5080464000348,,,,,,,,,,,,,,,,,008,001,2025-04-30_20h58.00.047,Cued GoNogo Task,2024.2.4,59.72645283510833,2025-04-30 20h58.06.433855 +0200,
block/CondBlock2.xlsx,You are about to start a block of type 2 trials.,6,6,0,NoGo,NoGo,0.3,0.2,0.05,none,green,vertical,space,268.651674700086,None,None,1,,,,,,0,1,1,1,0,6,6,6,650.5239400999853,,,,,,,,,,,,,,,,650.5083493000129,650.5239400999853,651.2232206000481,651.2232206000481,651.722905099974,651.7070377999917,651.7079029000597,651.722905099974,652.0229425999569,652.222671900061,652.222671900061,652.7061069000047,None,1,,,652.7080686000409,653.2051217000699,654.2041877000593,654.18864139996,652.722105700057,652.722105700057,,,,,,,,,,,,,,,008,001,2025-04-30_20h58.00.047,Cued GoNogo Task,2024.2.4,59.72645283510833,2025-04-30 20h58.06.433855 +0200,
block/CondBlock2.xlsx,You are about to start a block of type 2 trials.,7,7,0,NoGo,NoGo,0.14,0.05,0.2,none,blue,horizontal,space,268.651674700086,None,None,1,,,,,,0,1,1,1,0,7,7,7,654.2041877000593,,,,,,,,,,,,,,,,654.188968100003,654.2209222000092,654.9203225000529,654.9203225000529,655.4198957000626,655.4042957000202,655.4050346000586,655.4198957000626,655.5698174999561,655.75299920002,655.75299920002,656.2364796999609,None,1,,,656.2369248999748,656.7355969999917,657.7513890999835,657.7350914999843,656.2525789999636,656.2525789999636,,,,,,,,,,,,,,,008,001,2025-04-30_20h58.00.047,Cued GoNogo Task,2024.2.4,59.72645283510833,2025-04-30 20h58.06.433855 +0200,
block/CondBlock2.xlsx,You are about to start a block of type 2 trials.,8,8,0,Go,Go,0.13,0.2,0.05,space,blue,vertical,space,268.651674700086,None,space,1,0.1316707000369206,None,,,,0,1,1,1,0,8,8,8,657.7513890999835,,,,,,,,,,,,,,,,657.7352751999861,657.7513890999835,658.4508169000037,658.4508169000037,658.9503200000618,658.9344439000124,658.9349829000421,658.9503200000618,659.0835561000276,659.2667511999607,659.2667511999607,659.4018851000583,space,1,0.1316707000369206,None,659.4061760000186,659.9162423000671,660.9153949000174,660.8993607000448,,,,,,,,,,,,,,,,,008,001,2025-04-30_20h58.00.047,Cued GoNogo Task,2024.2.4,59.72645283510833,2025-04-30 20h58.06.433855 +0200,
block/CondBlock2.xlsx,You are about to start a block of type 2 trials.,9,9,0,Go,Go,0.43,0.2,0.05,space,green,vertical,space,268.651674700086,None,space,1,0.10691550001502037,None,,,,0,1,1,1,0,9,9,9,660.9153949000174,,,,,,,,,,,,,,,,660.8996305000037,660.9153949000174,661.614653400029,661.614653400029,662.1145914000226,662.0986930000363,662.0994420000352,662.1145914000226,662.5474003000418,662.7473680999829,662.7473680999829,662.8651061999844,space,1,0.10691550001502037,None,662.869586899993,663.3799859000137,664.3793364999583,664.3635000999784,,,,,,,,,,,,,,,,,008,001,2025-04-30_20h58.00.047,Cued GoNogo Task,2024.2.4,59.72645283510833,2025-04-30 20h58.06.433855 +0200,
block/CondBlock2.xlsx,You are about to start a block of type 2 trials.,10,10,0,Go,Go,0.14,0.2,0.05,space,green,vertical,space,268.651674700086,None,space,1,0.14194520004093647,None,,,,0,1,1,1,0,10,10,10,664.3793364999583,,,,,,,,,,,,,,,,664.3638898000354,664.3793364999583,665.0785738000413,665.0785738000413,665.5782526000403,665.5623238000553,665.5629497000482,665.5782526000403,665.7280756999971,665.9114426999586,665.9114426999586,666.0621429999592,space,1,0.14194520004093647,None,666.065292299958,666.5774508999893,667.5767766999779,667.5604798999848,,,,,,,,,,,,,,,,,008,001,2025-04-30_20h58.00.047,Cued GoNogo Task,2024.2.4,59.72645283510833,2025-04-30 20h58.06.433855 +0200,
block/CondBlock2.xlsx,You are about to start a block of type 2 trials.,11,11,0,Go,Go,0.27,0.2,0.05,space,green,vertical,space,268.651674700086,None,space,1,0.14773279998917133,None,,,,0,1,1,1,0,11,11,11,667.5767766999779,,,,,,,,,,,,,,,,667.5607006000355,667.5767766999779,668.2760302000679,668.2760302000679,668.7756666999776,668.7601225000108,668.7610153000569,668.7756666999776,669.0587056999793,669.2421240999829,669.2421240999829,669.3933360000374,space,1,0.14773279998917133,None,669.396375900018,669.9079962000251,670.9072612000164,670.891218499979,,,,,,,,,,,,,,,,,008,001,2025-04-30_20h58.00.047,Cued GoNogo Task,2024.2.4,59.72645283510833,2025-04-30 20h58.06.433855 +0200,
block/CondBlock2.xlsx,You are about to start a block of type 2 trials.,12,12,0,Go,Go,0.3,0.05,0.2,space,green,horizontal,space,268.651674700086,None,space,1,0.16783709998708218,None,,,,0,1,1,1,0,12,12,12,670.9072612000164,,,,,,,,,,,,,,,,670.8914683000185,670.9072612000164,671.6065187000204,671.6065187000204,672.106209199992,672.0902801000047,672.0909129000502,672.106209199992,672.4059487000341,672.6057566000381,672.6057566000381,672.7904953999678,space,1,0.16783709998708218,None,672.7945788999787,673.3055693999631,,674.3045378000243,,,,,,,,,,,,,,,,,008,001,2025-04-30_20h58.00.047,Cued GoNogo Task,2024.2.4,59.72645283510833,2025-04-30 20h58.06.433855 +0200,
block/CondBlock2.xlsx,You are about to start a block of type 2 trials.,13,13,0,Go,Go,0.18,0.2,0.05,space,blue,vertical,space,268.651674700086,None,space,1,0.14466869994066656,None,,,,0,1,1,1,0,13,13,13,674.321112500038,,,,,,,,,,,,,,,,674.3047615999822,674.321112500038,675.0037280999823,675.0205357000232,675.5034375999821,675.4875468000537,675.4882928000297,675.5034375999821,675.6866717999801,675.869842599961,675.869842599961,676.021044800058,space,1,0.14466869994066656,None,676.0245662999805,676.535930300015,677.5352646000683,677.5189681999618,,,,,,,,,,,,,,,,,008,001,2025-04-30_20h58.00.047,Cued GoNogo Task,2024.2.4,59.72645283510833,2025-04-30 20h58.06.433855 +0200,
block/CondBlock2.xlsx,You are about to start a block of type 2 trials.,14,14,0,Go,Go,0.13,0.2,0.05,space,green,vertical,space,268.651674700086,None,space,1,0.14035460003651679,None,,,,0,1,1,1,0,14,14,14,677.5352646000683,,,,,,,,,,,,,,,,677.5191808000673,677.5352646000683,678.234460500069,678.234460500069,678.7343368000584,678.7179912000429,678.7184738999931,678.7343368000584,678.8674573999597,679.0504354999866,679.0504354999866,679.2014789000386,space,1,0.14035460003651679,None,679.205186599982,679.7167309999932,680.7157877000282,680.6997445999878,,,,,,,,,,,,,,,,,008,001,2025-04-30_20h58.00.047,Cued GoNogo Task,2024.2.4,59.72645283510833,2025-04-30 20h58.06.433855 +0200,
block/CondBlock2.xlsx,You are about to start a block of type 2 trials.,15,15,0,Go,Go,0.18,0.2,0.05,space,blue,vertical,space,268.651674700086,None,space,1,0.12466719991061836,None,,,,0,1,1,1,0,15,15,15,680.7157877000282,,,,,,,,,,,,,,,,680.6999914000044,680.7157877000282,681.4153833000455,681.4153833000455,681.9148483000463,681.8985879999818,681.8989845999749,681.9148483000463,682.0978607999859,682.2810719000408,682.2810719000408,682.4153830000432,space,1,0.12466719991061836,None,682.4193834000034,682.9306759999599,683.9299820000306,683.9140073000453,,,,,,,,,,,,,,,,,008,001,2025-04-30_20h58.00.047,Cued GoNogo Task,2024.2.4,59.72645283510833,2025-04-30 20h58.06.433855 +0200,
block/CondBlock2.xlsx,You are about to start a block of type 2 trials.,16,16,0,Go,Go,0.24,0.2,0.05,space,green,vertical,space,268.651674700086,None,space,1,0.1321461999323219,None,,,,0,1,1,1,0,16,16,16,683.9299820000306,,,,,,,,,,,,,,,,683.9142940000165,683.9299820000306,684.6291703999741,684.6291703999741,685.1287609999999,685.113016200019,685.113717500004,685.1287609999999,685.3785769999959,685.5619922999758,685.5619922999758,685.6968141000252,space,1,0.1321461999323219,None,685.7009043999715,686.2112176000373,687.2104218000313,687.194700299995,,,,,,,,,,,,,,,,,008,001,2025-04-30_20h58.00.047,Cued GoNogo Task,2024.2.4,59.72645283510833,2025-04-30 20h58.06.433855 +0200,
block/CondBlock2.xlsx,You are about to start a block of type 2 trials.,17,17,0,Go,Go,0.26,0.2,0.05,space,blue,vertical,space,268.651674700086,None,space,1,0.12354770000092685,None,,,,0,1,1,1,0,17,17,17,687.2104218000313,,,,,,,,,,,,,,,,687.1950093000196,687.2104218000313,687.9099735000636,687.9099735000636,688.4095931999618,688.3937435999978,688.3944673000369,688.4095931999618,688.6759153000312,688.8591555999592,688.8591555999592,688.9939450999955,space,1,0.12354770000092685,None,688.999327700003,689.5086077000014,690.5077807999915,690.4916974999942,,,,,,,,,,,,,,,,,008,001,2025-04-30_20h58.00.047,Cued GoNogo Task,2024.2.4,59.72645283510833,2025-04-30 20h58.06.433855 +0200,
block/CondBlock2.xlsx,You are about to start a block of type 2 trials.,18,18,0,Go,Go,0.1,0.05,0.2,space,blue,horizontal,space,268.651674700086,None,space,1,0.1111229999223724,None,,,,0,1,1,1,0,18,18,18,690.5077807999915,,,,,,,,,,,,,,,,690.4919277000008,690.5077807999915,691.2072585000424,691.2072585000424,691.7066965000704,691.690753199975,691.6914051000495,691.7066965000704,691.8067398000276,692.0065103999805,692.0065103999805,692.1240471999627,space,1,0.1111229999223724,None,692.1271102000028,692.6392607999733,693.63841340004,693.6224059000378,,,,,,,,,,,,,,,,,008,001,2025-04-30_20h58.00.047,Cued GoNogo Task,2024.2.4,59.72645283510833,2025-04-30 20h58.06.433855 +0200,
block/CondBlock2.xlsx,You are about to start a block of type 2 trials.,19,19,0,Go,Go,0.46,0.2,0.05,space,blue,vertical,space,268.651674700086,None,space,1,0.14224090008065104,None,,,,0,1,1,1,0,19,19,19,693.63841340004,,,,,,,,,,,,,,,,693.6226113999728,693.63841340004,694.3378701000474,694.3378701000474,694.8374591000611,694.8214228999568,694.8219227000372,694.8374591000611,695.3038357000332,695.4869488000404,695.4869488000404,695.6379065000219,space,1,0.14224090008065104,None,695.6420424999669,696.153148500016,697.1522766000126,697.136144899996,,,,,,,,,,,,,,,,,008,001,2025-04-30_20h58.00.047,Cued GoNogo Task,2024.2.4,59.72645283510833,2025-04-30 20h58.06.433855 +0200,
block/CondBlock2.xlsx,You are about to start a block of type 2 trials.,20,20,0,Go,Go,0.3,0.05,0.2,space,blue,horizontal,space,268.651674700086,None,space,1,0.13949069997761399,None,,,,0,1,1,1,0,20,20,20,697.1522766000126,,,,,,,,,,,,,,,,697.1363681000657,697.1522766000126,697.8518449000549,697.8518449000549,698.3512776000425,698.3355001000455,698.3361367000034,698.3512776000425,698.6509862999665,698.8509419000475,698.8509419000475,699.001960100024,space,1,0.13949069997761399,None,699.0063048000447,699.5170002999948,700.5161952000344,700.5004688999616,,,,,,,,,,,,,,,,,008,001,2025-04-30_20h58.00.047,Cued GoNogo Task,2024.2.4,59.72645283510833,2025-04-30 20h58.06.433855 +0200,
block/CondBlock2.xlsx,You are about to start a block of type 2 trials.,21,21,0,Go,Go,0.23,0.05,0.2,space,green,horizontal,space,268.651674700086,None,space,1,0.10705770005006343,None,,,,0,1,1,1,0,21,21,21,700.5161952000344,,,,,,,,,,,,,,,,700.500756100053,700.5161952000344,701.2155094000045,701.2155094000045,701.7151499000611,701.6990286000073,701.6995953000151,701.7151499000611,701.9483903000364,702.1315330000361,702.1315330000361,702.2490683000069,space,1,0.10705770005006343,None,702.2520438999636,702.7643960999558,703.763483399991,703.7475261000218,,,,,,,,,,,,,,,,,008,001,2025-04-30_20h58.00.047,Cued GoNogo Task,2024.2.4,59.72645283510833,2025-04-30 20h58.06.433855 +0200,
block/CondBlock2.xlsx,You are about to start a block of type 2 trials.,22,22,0,Go,Go,0.19,0.2,0.05,space,green,vertical,space,268.651674700086,None,space,1,0.13322439999319613,None,,,,0,1,1,1,0,22,22,22,703.763483399991,,,,,,,,,,,,,,,,703.7478014000226,703.763483399991,704.4631271000253,704.4631271000253,704.9624941999791,704.946630600025,704.947340899962,704.9624941999791,705.1624648000579,705.3456772000063,705.3456772000063,705.4807884000475,space,1,0.13322439999319613,None,705.4840566000203,705.9949526999844,706.9941319000209,706.978069200064,,,,,,,,,,,,,,,,,008,001,2025-04-30_20h58.00.047,Cued GoNogo Task,2024.2.4,59.72645283510833,2025-04-30 20h58.06.433855 +0200,
block/CondBlock2.xlsx,You are about to start a block of type 2 trials.,23,23,0,NoGo,NoGo,0.41,0.2,0.05,none,blue,vertical,space,268.651674700086,None,None,1,,,,,,0,1,1,1,0,23,23,23,706.9941319000209,,,,,,,,,,,,,,,,706.9782633000286,706.9941319000209,707.6935999999987,707.6935999999987,708.1931878000032,708.1772183000576,708.1778127000434,708.1931878000032,708.6095647000475,708.7927385000512,708.7927385000512,709.2767459000461,None,1,,,709.2806539000012,709.7919244000223,710.7911868999945,710.7751009999774,709.29245920002,709.29245920002,,,,,,,,,,,,,,,008,001,2025-04-30_20h58.00.047,Cued GoNogo Task,2024.2.4,59.72645283510833,2025-04-30 20h58.06.433855 +0200,
block/CondBlock2.xlsx,You are about to start a block of type 2 trials.,24,24,0,Go,Go,0.17,0.2,0.05,space,blue,vertical,space,268.651674700086,None,space,1,0.13825859990902245,None,,,,0,1,1,1,0,24,24,24,710.7911868999945,,,,,,,,,,,,,,,,710.7754363999702,710.7911868999945,711.4904615000123,711.4904615000123,711.9902398000704,711.9743697000667,711.9750757999718,711.9902398000704,712.1733674999559,712.3564252000069,712.3564252000069,712.5074125999818,space,1,0.13825859990902245,None,712.5106274000136,713.0225284000626,714.0219199999701,714.0056160000386,,,,,,,,,,,,,,,,,008,001,2025-04-30_20h58.00.047,Cued GoNogo Task,2024.2.4,59.72645283510833,2025-04-30 20h58.06.433855 +0200,
block/CondBlock2.xlsx,You are about to start a block of type 2 trials.,25,25,0,Go,Go,0.27,0.05,0.2,space,blue,horizontal,space,268.651674700086,None,space,1,0.1587763000279665,None,,,,0,1,1,1,0,25,25,25,714.0219199999701,,,,,,,,,,,,,,,,714.0058406000026,714.0219199999701,714.7210857999744,714.7210857999744,715.2207085000118,715.2049216000596,715.2055485000601,715.2207085000118,715.5039323000237,715.6868767000269,715.6868767000269,715.8545947000384,space,1,0.1587763000279665,None,715.8580873999745,716.3698149999836,717.3690968999872,717.353347199969,,,,,,,,,,,,,,,,,008,001,2025-04-30_20h58.00.047,Cued GoNogo Task,2024.2.4,59.72645283510833,2025-04-30 20h58.06.433855 +0200,
block/CondBlock2.xlsx,You are about to start a block of type 2 trials.,26,26,0,Go,Go,0.26,0.05,0.2,space,green,horizontal,space,268.651674700086,None,space,1,0.1091143999947235,None,,,,0,1,1,1,0,26,26,26,717.3690968999872,,,,,,,,,,,,,,,,717.3536889000097,717.3690968999872,718.0684410000686,718.0684410000686,718.5678934999742,718.5518304000143,718.5523837000364,718.5678934999742,718.834350500023,719.0175325999735,719.0175325999735,719.1354230999714,space,1,0.1091143999947235,None,719.1393474000506,719.6503459999803,720.6496285999892,720.6338987000054,,,,,,,,,,,,,,,,,008,001,2025-04-30_20h58.00.047,Cued GoNogo Task,2024.2.4,59.72645283510833,2025-04-30 20h58.06.433855 +0200,
block/CondBlock2.xlsx,You are about to start a block of type 2 trials.,27,27,0,Go,Go,0.22,0.2,0.05,space,green,vertical,space,268.651674700086,None,space,1,0.11690429993905127,None,,,,0,1,1,1,0,27,27,27,720.6496285999892,,,,,,,,,,,,,,,,720.6341877999948,720.6496285999892,721.3491044000257,721.3491044000257,721.8486002000282,721.8327888000058,721.8336253999732,721.8486002000282,722.0819478000049,722.2649425000418,722.2649425000418,722.3841577999992,space,1,0.11690429993905127,None,722.3878007000312,722.8977013999829,723.8968900999753,723.8808747000294,,,,,,,,,,,,,,,,,008,001,2025-04-30_20h58.00.047,Cued GoNogo Task,2024.2.4,59.72645283510833,2025-04-30 20h58.06.433855 +0200,
block/CondBlock2.xlsx,You are about to start a block of type 2 trials.,28,28,0,Go,Go,0.19,0.05,0.2,space,blue,horizontal,space,268.651674700086,None,space,1,0.1187013000017032,None,,,,0,1,1,1,0,28,28,28,723.8968900999753,,,,,,,,,,,,,,,,723.8810869000154,723.8968900999753,724.5962867999915,724.5962867999915,725.0959324999712,725.0798974999925,725.080468500033,725.0959324999712,725.295823500026,725.4788595000282,725.4788595000282,725.6133482999867,space,1,0.1187013000017032,None,725.6163190000225,726.1286615000572,,727.1277616999578,,,,,,,,,,,,,,,,,008,001,2025-04-30_20h58.00.047,Cued GoNogo Task,2024.2.4,59.72645283510833,2025-04-30 20h58.06.433855 +0200,
block/CondBlock2.xlsx,You are about to start a block of type 2 trials.,29,29,0,Go,Go,0.18,0.05,0.2,space,blue,horizontal,space,268.651674700086,None,space,1,0.12978219997603446,None,,,,0,1,1,1,0,29,29,29,727.1442614999833,,,,,,,,,,,,,,,,727.1280434000073,727.1442614999833,727.8268751000287,727.8436498000519,728.326731899986,728.3105912000174,728.3111783000641,728.326731899986,728.5099169999594,728.6929601000156,728.6929601000156,728.8277659000596,space,1,0.12978219997603446,None,728.834369600052,729.34247709997,730.3417914999882,730.3258032000158,,,,,,,,,,,,,,,,,008,001,2025-04-30_20h58.00.047,Cued GoNogo Task,2024.2.4,59.72645283510833,2025-04-30 20h58.06.433855 +0200,
block/CondBlock2.xlsx,You are about to start a block of type 2 trials.,30,30,0,NoGo,NoGo,0.23,0.2,0.05,none,blue,vertical,space,268.651674700086,None,None,1,,,,,,0,1,1,1,0,30,30,30,730.3417914999882,,,,,,,,,,,,,,,,730.3260799000273,730.3417914999882,731.0411134000169,731.0411134000169,731.5406187999761,731.5248390999623,731.5256464000558,731.5406187999761,731.7737737999996,731.9568774000509,731.9568774000509,732.4406250000466,None,1,,,732.4430741000688,732.9561720000347,733.9553837999701,733.9394708999898,732.4566015000455,732.4566015000455,,,,,,,,,,,,,,,008,001,2025-04-30_20h58.00.047,Cued GoNogo Task,2024.2.4,59.72645283510833,2025-04-30 20h58.06.433855 +0200,
block/CondBlock2.xlsx,You are about to start a block of type 2 trials.,31,31,0,Go,Go,0.43,0.2,0.05,space,green,vertical,space,268.651674700086,None,space,1,0.1396651000250131,None,,,,0,1,1,1,0,31,31,31,733.9553837999701,,,,,,,,,,,,,,,,733.93972210004,733.9553837999701,734.654814700014,734.654814700014,735.1544229000574,735.1383654000238,735.1391786000459,735.1544229000574,735.5873195000459,735.7706035999581,735.7706035999581,735.921518499963,space,1,0.1396651000250131,None,735.9257266999921,736.4364194000373,737.4357104999945,737.4203498000279,,,,,,,,,,,,,,,,,008,001,2025-04-30_20h58.00.047,Cued GoNogo Task,2024.2.4,59.72645283510833,2025-04-30 20h58.06.433855 +0200,
block/CondBlock2.xlsx,You are about to start a block of type 2 trials.,32,32,0,Go,Go,0.13,0.05,0.2,space,blue,horizontal,space,268.651674700086,None,space,1,0.18289649998769164,None,,,,0,1,1,1,0,32,32,32,737.4357104999945,,,,,,,,,,,,,,,,737.4206772999605,737.4357104999945,738.1352343000472,738.1352343000472,738.6348270999733,738.6191836000653,738.6198492000112,738.6348270999733,738.7679894999601,738.9511904000537,738.9511904000537,739.1361675000517,space,1,0.18289649998769164,None,739.1392708000494,739.6507001999998,740.6498147000093,740.6337801000336,,,,,,,,,,,,,,,,,008,001,2025-04-30_20h58.00.047,Cued GoNogo Task,2024.2.4,59.72645283510833,2025-04-30 20h58.06.433855 +0200,
block/CondBlock2.xlsx,You are about to start a block of type 2 trials.,33,33,0,Go,Go,0.45,0.05,0.2,space,green,horizontal,space,268.651674700086,None,space,1,0.0989892000798136,None,,,,0,1,1,1,0,33,33,33,740.6498147000093,,,,,,,,,,,,,,,,740.6339915000135,740.6498147000093,741.3493317000102,741.3493317000102,741.848834900069,741.8331643000711,741.8339718000498,741.848834900069,742.2986134999665,742.4985598999774,742.4985598999774,742.6003017000621,space,1,0.0989892000798136,None,742.6038835999789,743.1144572000485,744.1136894000228,744.0975587000139,,,,,,,,,,,,,,,,,008,001,2025-04-30_20h58.00.047,Cued GoNogo Task,2024.2.4,59.72645283510833,2025-04-30 20h58.06.433855 +0200,
block/CondBlock2.xlsx,You are about to start a block of type 2 trials.,34,34,0,Go,Go,0.14,0.2,0.05,space,blue,vertical,space,268.651674700086,None,space,1,0.16039959993213415,None,,,,0,1,1,1,0,34,34,34,744.1136894000228,,,,,,,,,,,,,,,,744.0978312999941,744.1136894000228,744.8131188000552,744.8131188000552,745.3126183999702,745.2969314999646,745.2976643999573,745.3126183999702,745.4625339000486,745.6457421999658,745.6457421999658,745.8132670000196,space,1,0.16039959993213415,None,745.8170260000043,746.3284271999728,747.3276385000208,747.3123129999731,,,,,,,,,,,,,,,,,008,001,2025-04-30_20h58.00.047,Cued GoNogo Task,2024.2.4,59.72645283510833,2025-04-30 20h58.06.433855 +0200,
block/CondBlock2.xlsx,You are about to start a block of type 2 trials.,35,35,0,Go,Go,0.11,0.2,0.05,space,blue,vertical,space,268.651674700086,None,space,1,0.17969089990947396,None,,,,0,1,1,1,0,35,35,35,747.3276385000208,,,,,,,,,,,,,,,,747.3126040999778,747.3276385000208,748.0270624000113,748.0270624000113,748.5268163000001,748.51046400005,748.510915699997,748.5268163000001,748.6432838999899,748.8264040000504,748.8264040000504,749.0111287999898,space,1,0.17969089990947396,None,749.0157723999582,749.5259377000621,750.5250196000561,750.5092714000493,,,,,,,,,,,,,,,,,008,001,2025-04-30_20h58.00.047,Cued GoNogo Task,2024.2.4,59.72645283510833,2025-04-30 20h58.06.433855 +0200,
block/CondBlock2.xlsx,You are about to start a block of type 2 trials.,36,36,0,Go,Go,0.15,0.05,0.2,space,green,horizontal,space,268.651674700086,None,space,1,0.13346270006150007,None,,,,0,1,1,1,0,36,36,36,750.5250196000561,,,,,,,,,,,,,,,,750.5095679999795,750.5250196000561,751.2243670000462,751.2243670000462,751.7240342999576,751.7079684999771,751.7084699000698,751.7240342999576,751.8739256999688,752.0737027999712,752.0737027999712,752.2092384999851,space,1,0.13346270006150007,None,752.2121859999606,752.7234059000621,753.7225593000185,753.7066403999925,,,,,,,,,,,,,,,,,008,001,2025-04-30_20h58.00.047,Cued GoNogo Task,2024.2.4,59.72645283510833,2025-04-30 20h58.06.433855 +0200,
block/CondBlock2.xlsx,You are about to start a block of type 2 trials.,37,37,0,Go,Go,0.15,0.2,0.05,space,green,vertical,space,268.651674700086,None,space,1,0.08682640001643449,None,,,,0,1,1,1,0,37,37,37,753.7225593000185,,,,,,,,,,,,,,,,753.7069499000208,753.7225593000185,754.421899799956,754.421899799956,754.9215234000003,754.9055103999563,754.9061676999554,754.9215234000003,755.071266300045,755.27124859998,755.27124859998,755.3726769000059,space,1,0.08682640001643449,None,755.3757597999647,755.8875376000069,756.8865114999935,756.8708073999733,,,,,,,,,,,,,,,,,008,001,2025-04-30_20h58.00.047,Cued GoNogo Task,2024.2.4,59.72645283510833,2025-04-30 20h58.06.433855 +0200,
block/CondBlock2.xlsx,You are about to start a block of type 2 trials.,38,38,0,NoGo,NoGo,0.14,0.2,0.05,none,green,vertical,space,268.651674700086,None,None,1,,,,,,0,1,1,1,0,38,38,38,756.8865114999935,,,,,,,,,,,,,,,,756.871139200055,756.8865114999935,757.5860053000506,757.5860053000506,758.085442300071,758.0695761999814,758.0702641999815,758.085442300071,758.2353017999558,758.4184440000681,758.4184440000681,758.9022612000117,None,1,,,758.9052314000437,759.4177624000004,760.4170764000155,760.401151600061,758.9180378000019,758.9180378000019,,,,,,,,,,,,,,,008,001,2025-04-30_20h58.00.047,Cued GoNogo Task,2024.2.4,59.72645283510833,2025-04-30 20h58.06.433855 +0200,
block/CondBlock2.xlsx,You are about to start a block of type 2 trials.,39,39,0,Go,Go,0.46,0.2,0.05,space,green,vertical,space,268.651674700086,None,space,1,0.1491908000316471,None,,,,0,1,1,1,0,39,39,39,760.4170764000155,,,,,,,,,,,,,,,,760.4014337999979,760.4170764000155,761.1164191999706,761.1164191999706,761.616070899996,761.6000047000125,761.6006286999909,761.616070899996,762.0823083999567,762.2655919999816,762.2655919999816,762.4173524000216,space,1,0.1491908000316471,None,762.4239111000206,762.9315118000377,763.9306593000656,763.9149130999576,,,,,,,,,,,,,,,,,008,001,2025-04-30_20h58.00.047,Cued GoNogo Task,2024.2.4,59.72645283510833,2025-04-30 20h58.06.433855 +0200,
block/CondBlock2.xlsx,You are about to start a block of type 2 trials.,40,40,0,Go,Go,0.5,0.05,0.2,space,blue,horizontal,space,268.651674700086,None,space,1,0.13630809995811433,None,,,,0,1,1,1,0,40,40,40,763.9306593000656,,,,,,,,,,,,,,,,763.9152527999831,763.9306593000656,764.6301119000418,764.6301119000418,765.1296858000569,765.1137961000204,765.1144969000015,765.1296858000569,765.6293413999956,765.8292797000613,765.8292797000613,765.9803458000533,space,1,0.13630809995811433,None,765.9844187999843,766.4953138000565,767.4945450000232,767.478664800059,,,,,,,,,,,,,,,,,008,001,2025-04-30_20h58.00.047,Cued GoNogo Task,2024.2.4,59.72645283510833,2025-04-30 20h58.06.433855 +0200,
block/CondBlock2.xlsx,You are about to start a block of type 2 trials.,41,41,0,Go,Go,0.16,0.05,0.2,space,green,horizontal,space,268.651674700086,None,space,1,0.14630549994762987,None,,,,0,1,1,1,0,41,41,41,767.4945450000232,,,,,,,,,,,,,,,,767.4790087000001,767.4945450000232,768.193996499991,768.193996499991,768.6934831000399,768.6774743000278,768.6781680999557,768.6934831000399,768.8599728000117,769.0431349000428,769.0431349000428,769.1944351000711,space,1,0.14630549994762987,None,769.198268600041,769.7092577000149,770.708518999978,770.692546700011,,,,,,,,,,,,,,,,,008,001,2025-04-30_20h58.00.047,Cued GoNogo Task,2024.2.4,59.72645283510833,2025-04-30 20h58.06.433855 +0200,
