Block,blockMsg,thisN,thisTrialN,thisRepN,CueType,StimType,CueTime,Stim_Height,Stim_Width,CRESP,Color,Orientation,key_resp_2.keys,key_resp_2.rt,key_resp_2.duration,Key_Resp.keys,Key_Resp.corr,Key_Resp.rt,Key_Resp.duration,key_resp_3.keys,key_resp_3.rt,key_resp_3.duration,Blocks.thisRepN,Blocks.thisTrialN,Blocks.thisN,Blocks.thisIndex,Trials.thisRepN,Trials.thisTrialN,Trials.thisN,Trials.thisIndex,thisRow.t,notes,TaskIntro.started,fixation.started,key_resp.started,TaskIntro.stopped,key_resp.keys,key_resp.rt,key_resp.duration,BlockStart.started,BlockStart_Msg.started,key_resp_2.started,BlockStart.stopped,Blocks.key_resp_2.keys,Blocks.key_resp_2.rt,Blocks.key_resp_2.duration,Fixation.started,FixationPhase.started,Blank.started,FixationPhase.stopped,Blank.stopped,Fixation.stopped,Trial.started,Cue.started,Cue.stopped,GoNogo_Stim.started,Key_Resp.started,Trial.stopped,Trials.Key_Resp.keys,Trials.Key_Resp.corr,Trials.Key_Resp.rt,Trials.Key_Resp.duration,Feedback.started,Feedback_Present.started,Feedback_Present.stopped,Feedback.stopped,GoNogo_Stim.stopped,Key_Resp.stopped,BlockEnd.started,BlockEnd_Msg.started,key_resp_3.started,BlockEnd.stopped,Blocks.key_resp_3.keys,Blocks.key_resp_3.rt,Blocks.key_resp_3.duration,TaskEnd.started,ThankYou.started,key_resp_4.started,TaskEnd.stopped,key_resp_4.keys,key_resp_4.rt,key_resp_4.duration,participant,session,date,expName,psychopyVersion,frameRate,expStart,
,,,,,,,,,,,,,,,,,,,,,,,,,,,,,,,,,0.0019118000054731965,0.004562099929898977,0.004562099929898977,14.973762499983422,space,14.898005999973975,None,,,,,,,,,,,,,,,,,,,,,,,,,,,,,,,,,,,,,,,,,,,,007,001,2025-04-30_18h57.58.825,Cued GoNogo Task,2024.2.4,60.168507931590085,2025-04-30 18h58.06.195581 +0200,
block/CondBlock1.xlsx,You are about to start a block of type 1 trials.,0,0,0,Go,Go,0.13,0.05,0.2,space,blue,horizontal,space,11.971945600002073,None,space,1,0.3279336999403313,None,,,,0,0,0,0,0,0,0,0,27.04596869996749,,,,,,,,,14.984024900011718,14.986834299983457,14.986834299983457,26.97150480002165,space,11.971945600002073,None,27.043284600018524,27.04596869996749,27.68623699992895,27.752979999990202,28.185795599943958,28.170022999984212,28.170583399944007,28.185795599943958,28.319029900012538,28.502398499986157,28.502398499986157,28.836689200019464,space,1,0.3279336999403313,None,28.850335899973288,29.351548700011335,30.35070850001648,30.33516429993324,,,,,,,,,,,,,,,,,007,001,2025-04-30_18h57.58.825,Cued GoNogo Task,2024.2.4,60.168507931590085,2025-04-30 18h58.06.195581 +0200,
block/CondBlock1.xlsx,You are about to start a block of type 1 trials.,1,1,0,NoGo,NoGo,0.43,0.05,0.2,none,blue,horizontal,space,11.971945600002073,None,None,1,,,,,,0,0,0,0,0,1,1,1,30.35070850001648,,,,,,,,,,,,,,,,30.33553269994445,30.35070850001648,31.05043790000491,31.05043790000491,31.549744799965993,31.5339202999603,31.534619400044903,31.549744799965993,31.982723099994473,32.16590170003474,32.16590170003474,32.649479900021106,None,1,,,32.651647499995306,33.14858399995137,34.147691200021654,34.13167369994335,32.66542900004424,32.66542900004424,,,,,,,,,,,,,,,007,001,2025-04-30_18h57.58.825,Cued GoNogo Task,2024.2.4,60.168507931590085,2025-04-30 18h58.06.195581 +0200,
block/CondBlock1.xlsx,You are about to start a block of type 1 trials.,2,2,0,Go,Go,0.12,0.2,0.05,space,blue,vertical,space,11.971945600002073,None,space,1,0.17498050001449883,None,,,,0,0,0,0,0,2,2,2,34.147691200021654,,,,,,,,,,,,,,,,34.13199559994973,34.16432219999842,34.863599900039844,34.863599900039844,35.36327169998549,35.34759729995858,35.34839960001409,35.36327169998549,35.496479199966416,35.679698499967344,35.679698499967344,35.86410869995598,space,1,0.17498050001449883,None,35.86877820000518,36.37910759996157,37.37837910000235,37.36286150000524,,,,,,,,,,,,,,,,,007,001,2025-04-30_18h57.58.825,Cued GoNogo Task,2024.2.4,60.168507931590085,2025-04-30 18h58.06.195581 +0200,
block/CondBlock1.xlsx,You are about to start a block of type 1 trials.,3,3,0,NoGo,NoGo,0.18,0.2,0.05,none,green,vertical,space,11.971945600002073,None,None,1,,,,,,0,0,0,0,0,3,3,3,37.37837910000235,,,,,,,,,,,,,,,,37.36327680002432,37.37837910000235,38.07769329997245,38.07769329997245,38.57753440004308,38.56135069997981,38.56232839997392,38.57753440004308,38.76034679997247,38.9436418999685,38.9436418999685,39.42779240000527,None,1,,,39.43093699996825,39.94294129998889,40.94200619996991,40.92607659997884,39.443311400013044,39.443311400013044,,,,,,,,,,,,,,,007,001,2025-04-30_18h57.58.825,Cued GoNogo Task,2024.2.4,60.168507931590085,2025-04-30 18h58.06.195581 +0200,
block/CondBlock1.xlsx,You are about to start a block of type 1 trials.,4,4,0,Go,Go,0.24,0.05,0.2,space,green,horizontal,space,11.971945600002073,None,space,1,0.1289821999380365,None,,,,0,0,0,0,0,4,4,4,40.94200619996991,,,,,,,,,,,,,,,,40.926405300037004,40.94200619996991,41.64146499999333,41.64146499999333,42.14108219998889,42.12509620003402,42.1257093999302,42.14108219998889,42.39085740002338,42.57383380003739,42.57383380003739,42.70871819998138,space,1,0.1289821999380365,None,42.71482079999987,43.22337929997593,44.222555799991824,44.20680149993859,,,,,,,,,,,,,,,,,007,001,2025-04-30_18h57.58.825,Cued GoNogo Task,2024.2.4,60.168507931590085,2025-04-30 18h58.06.195581 +0200,
block/CondBlock1.xlsx,You are about to start a block of type 1 trials.,5,5,0,Go,Go,0.21,0.05,0.2,space,blue,horizontal,space,11.971945600002073,None,space,1,0.16060489998199046,None,,,,0,0,0,0,0,5,5,5,44.222555799991824,,,,,,,,,,,,,,,,44.20709249994252,44.222555799991824,44.92211569997016,44.92211569997016,45.42167209996842,45.40546899999026,45.40608029998839,45.42167209996842,45.63817059993744,45.82141440000851,45.82141440000851,45.988886300008744,space,1,0.16060489998199046,None,45.99417750001885,46.504135499941185,47.50340419996064,47.48754370003007,,,,,,,,,,,,,,,,,007,001,2025-04-30_18h57.58.825,Cued GoNogo Task,2024.2.4,60.168507931590085,2025-04-30 18h58.06.195581 +0200,
block/CondBlock1.xlsx,You are about to start a block of type 1 trials.,6,6,0,Go,Go,0.11,0.2,0.05,space,blue,vertical,space,11.971945600002073,None,space,1,0.3091321000829339,None,,,,0,0,0,0,0,6,6,6,47.50340419996064,,,,,,,,,,,,,,,,47.487794999964535,47.50340419996064,48.20276200002991,48.20276200002991,48.70235199993476,48.686698899953626,48.68724929995369,48.70235199993476,48.81888889998663,49.00204049993772,49.00204049993772,49.32010040001478,space,1,0.3091321000829339,None,49.32662149996031,49.834819499985315,50.83376940002199,50.81799619994126,,,,,,,,,,,,,,,,,007,001,2025-04-30_18h57.58.825,Cued GoNogo Task,2024.2.4,60.168507931590085,2025-04-30 18h58.06.195581 +0200,
block/CondBlock1.xlsx,You are about to start a block of type 1 trials.,7,7,0,Go,Go,0.15,0.2,0.05,space,blue,vertical,space,11.971945600002073,None,space,1,0.08716420002747327,None,,,,0,0,0,0,0,7,7,7,50.83376940002199,,,,,,,,,,,,,,,,50.81828589993529,50.83376940002199,51.53335799998604,51.53335799998604,52.033132900018245,52.01705280004535,52.01776199997403,52.033132900018245,52.1827309000073,52.38281039998401,52.38281039998401,52.48397089994978,space,1,0.08716420002747327,None,52.488219199934974,52.99883799999952,53.99800090002827,53.98199030000251,,,,,,,,,,,,,,,,,007,001,2025-04-30_18h57.58.825,Cued GoNogo Task,2024.2.4,60.168507931590085,2025-04-30 18h58.06.195581 +0200,
block/CondBlock1.xlsx,You are about to start a block of type 1 trials.,8,8,0,NoGo,NoGo,0.3,0.05,0.2,none,blue,horizontal,space,11.971945600002073,None,None,1,,,,,,0,0,0,0,0,8,8,8,53.99800090002827,,,,,,,,,,,,,,,,53.98226870002691,53.99800090002827,54.697377100004815,54.697377100004815,55.196966400020756,55.181286499951966,55.18212270003278,55.196966400020756,55.496882600011304,55.696410199976526,55.696410199976526,56.1799364000326,None,1,,,56.18171429994982,56.67925419996027,57.678438500035554,57.662574799964204,56.1959407000104,56.1959407000104,,,,,,,,,,,,,,,007,001,2025-04-30_18h57.58.825,Cued GoNogo Task,2024.2.4,60.168507931590085,2025-04-30 18h58.06.195581 +0200,
block/CondBlock1.xlsx,You are about to start a block of type 1 trials.,9,9,0,NoGo,NoGo,0.17,0.05,0.2,none,blue,horizontal,space,11.971945600002073,None,None,1,,,,,,0,0,0,0,0,9,9,9,57.678438500035554,,,,,,,,,,,,,,,,57.66288179997355,57.694974299985915,58.39433509996161,58.39433509996161,58.89378000004217,58.87806909997016,58.87878589995671,58.89378000004217,59.07706189993769,59.260472499998286,59.260472499998286,59.74373789993115,None,1,,,59.7441131999949,60.24290559999645,61.241939699975774,61.22618420002982,59.75978199997917,59.75978199997917,,,,,,,,,,,,,,,007,001,2025-04-30_18h57.58.825,Cued GoNogo Task,2024.2.4,60.168507931590085,2025-04-30 18h58.06.195581 +0200,
block/CondBlock1.xlsx,You are about to start a block of type 1 trials.,10,10,0,NoGo,NoGo,0.26,0.2,0.05,none,green,vertical,space,11.971945600002073,None,None,1,,,,,,0,0,0,0,0,10,10,10,61.241939699975774,,,,,,,,,,,,,,,,61.22654780000448,61.2586460999446,61.958242399967276,61.958242399967276,62.4578227000311,62.44221440004185,62.4429462000262,62.4578227000311,62.72415030002594,62.907329999958165,62.907329999958165,63.39121559995692,None,1,,,63.39171749993693,63.906436300021596,64.90566769998986,64.88980010000523,63.40694919996895,63.40694919996895,,,,,,,,,,,,,,,007,001,2025-04-30_18h57.58.825,Cued GoNogo Task,2024.2.4,60.168507931590085,2025-04-30 18h58.06.195581 +0200,
block/CondBlock1.xlsx,You are about to start a block of type 1 trials.,11,11,0,Go,Go,0.27,0.05,0.2,space,green,horizontal,space,11.971945600002073,None,None,0,,,,,,0,0,0,0,0,11,11,11,64.90566769998986,,,,,,,,,,,,,,,,64.89008869999088,64.90566769998986,65.60505180002656,65.60505180002656,66.10471500002313,66.08873940003105,66.08936240000185,66.10471500002313,66.38805509998929,66.5709117000224,66.5709117000224,67.05468369997106,None,0,,,67.05935939995106,67.57012159994338,68.56946789997164,68.55348270002287,67.07048290001694,67.07048290001694,,,,,,,,,,,,,,,007,001,2025-04-30_18h57.58.825,Cued GoNogo Task,2024.2.4,60.168507931590085,2025-04-30 18h58.06.195581 +0200,
block/CondBlock1.xlsx,You are about to start a block of type 1 trials.,12,12,0,Go,Go,0.16,0.2,0.05,space,green,vertical,space,11.971945600002073,None,space,1,0.13563979999162257,None,,,,0,0,0,0,0,12,12,12,68.56946789997164,,,,,,,,,,,,,,,,68.5537592000328,68.56946789997164,69.26867519994266,69.26867519994266,69.76819940004498,69.75236819998827,69.75290339998901,69.76819940004498,69.93493829993531,70.11818789993413,70.11818789993413,70.26905929995701,space,1,0.13563979999162257,None,70.2739780000411,70.78434879996348,71.78333639993798,71.76766649994534,,,,,,,,,,,,,,,,,007,001,2025-04-30_18h57.58.825,Cued GoNogo Task,2024.2.4,60.168507931590085,2025-04-30 18h58.06.195581 +0200,
block/CondBlock1.xlsx,You are about to start a block of type 1 trials.,13,13,0,Go,Go,0.13,0.2,0.05,space,green,vertical,space,11.971945600002073,None,space,1,0.14777799998410046,None,,,,0,0,0,0,0,13,13,13,71.78333639993798,,,,,,,,,,,,,,,,71.7679696000414,71.78333639993798,72.48265649995301,72.48265649995301,72.98236749996431,72.96637339994777,72.96706289995927,72.98236749996431,73.11552150000352,73.29881680000108,73.29881680000108,73.44988830003422,space,1,0.14777799998410046,None,73.45514580002055,73.96498849999625,74.96406959998421,74.94820009998512,,,,,,,,,,,,,,,,,007,001,2025-04-30_18h57.58.825,Cued GoNogo Task,2024.2.4,60.168507931590085,2025-04-30 18h58.06.195581 +0200,
block/CondBlock1.xlsx,You are about to start a block of type 1 trials.,14,14,0,Go,Go,0.12,0.05,0.2,space,blue,horizontal,space,11.971945600002073,None,space,1,0.15012360003311187,None,,,,0,0,0,0,0,14,14,14,74.96406959998421,,,,,,,,,,,,,,,,74.94849909993354,74.96406959998421,75.66339709993917,75.66339709993917,76.16300890001003,76.14699010003824,76.14760070003103,76.16300890001003,76.29618790000677,76.47951470001135,76.47951470001135,76.63200480001979,space,1,0.15012360003311187,None,76.63655559998006,77.14573580003344,78.1448627000209,78.12886139994953,,,,,,,,,,,,,,,,,007,001,2025-04-30_18h57.58.825,Cued GoNogo Task,2024.2.4,60.168507931590085,2025-04-30 18h58.06.195581 +0200,
block/CondBlock1.xlsx,You are about to start a block of type 1 trials.,15,15,0,Go,Go,0.45,0.2,0.05,space,blue,vertical,space,11.971945600002073,None,space,1,0.06986869999673218,None,,,,0,0,0,0,0,15,15,15,78.1448627000209,,,,,,,,,,,,,,,,78.12907769996673,78.1448627000209,78.844203799963,78.844203799963,79.34371319995262,79.32772049994674,79.32831679994706,79.34371319995262,79.79346079996321,79.99321300000884,79.99321300000884,80.0776954999892,space,1,0.06986869999673218,None,80.08167750004213,80.59283039998263,81.59188209997956,81.5757763000438,,,,,,,,,,,,,,,,,007,001,2025-04-30_18h57.58.825,Cued GoNogo Task,2024.2.4,60.168507931590085,2025-04-30 18h58.06.195581 +0200,
block/CondBlock1.xlsx,You are about to start a block of type 1 trials.,16,16,0,NoGo,NoGo,0.14,0.2,0.05,none,green,vertical,space,11.971945600002073,None,None,1,,,,,,0,0,0,0,0,16,16,16,81.59188209997956,,,,,,,,,,,,,,,,81.57603959995322,81.59188209997956,82.29128530004527,82.29128530004527,82.79090240004007,82.77510600001551,82.77584090002347,82.79090240004007,82.94073809997644,83.12410160002764,83.12410160002764,83.60758119996171,None,1,,,83.61015940003563,84.1232011000393,85.1224342000205,85.10623469995335,83.62363359995652,83.62363359995652,,,,,,,,,,,,,,,007,001,2025-04-30_18h57.58.825,Cued GoNogo Task,2024.2.4,60.168507931590085,2025-04-30 18h58.06.195581 +0200,
block/CondBlock1.xlsx,You are about to start a block of type 1 trials.,17,17,0,Go,Go,0.12,0.05,0.2,space,green,horizontal,space,11.971945600002073,None,space,1,0.15246400004252791,None,,,,0,0,0,0,0,17,17,17,85.1224342000205,,,,,,,,,,,,,,,,85.10649759997614,85.1224342000205,85.82169779995456,85.82169779995456,86.32137260003947,86.30574089998845,86.30657789995894,86.32137260003947,86.4545285999775,86.63780339993536,86.63780339993536,86.80570170003921,space,1,0.15246400004252791,None,86.80979900003877,87.32069419999607,88.32000059995335,88.30377410002984,,,,,,,,,,,,,,,,,007,001,2025-04-30_18h57.58.825,Cued GoNogo Task,2024.2.4,60.168507931590085,2025-04-30 18h58.06.195581 +0200,
block/CondBlock1.xlsx,You are about to start a block of type 1 trials.,18,18,0,Go,Go,0.47,0.2,0.05,space,blue,vertical,space,11.971945600002073,None,space,1,0.12534959998447448,None,,,,0,0,0,0,0,18,18,18,88.32000059995335,,,,,,,,,,,,,,,,88.30405139992945,88.32000059995335,89.01926480000839,89.01926480000839,89.51891119999345,89.50274789996911,89.50332220003475,89.51891119999345,90.00174979993608,90.18488650000654,90.18488650000654,90.31948529998772,space,1,0.12534959998447448,None,90.32444240001496,90.8344060999807,91.83348150004167,91.81799839995801,,,,,,,,,,,,,,,,,007,001,2025-04-30_18h57.58.825,Cued GoNogo Task,2024.2.4,60.168507931590085,2025-04-30 18h58.06.195581 +0200,
block/CondBlock1.xlsx,You are about to start a block of type 1 trials.,19,19,0,Go,Go,0.18,0.2,0.05,space,green,vertical,space,11.971945600002073,None,space,1,0.21462459990289062,None,,,,0,0,0,0,0,19,19,19,91.83348150004167,,,,,,,,,,,,,,,,91.818375700037,91.83348150004167,92.53283659997396,92.53283659997396,93.0322769000195,93.01650299993344,93.01708359993063,93.0322769000195,93.21559010003693,93.39891039999202,93.39891039999202,93.61680499999784,space,1,0.21462459990289062,None,93.62059629999567,94.13149159995373,95.13088710000739,95.11501389998011,,,,,,,,,,,,,,,,,007,001,2025-04-30_18h57.58.825,Cued GoNogo Task,2024.2.4,60.168507931590085,2025-04-30 18h58.06.195581 +0200,
block/CondBlock1.xlsx,You are about to start a block of type 1 trials.,20,20,0,Go,Go,0.19,0.2,0.05,space,blue,vertical,space,11.971945600002073,None,space,1,0.16535639995709062,None,,,,0,0,0,0,0,20,20,20,95.13088710000739,,,,,,,,,,,,,,,,95.11532370001078,95.13088710000739,95.83011959993746,95.83011959993746,96.32979420002084,96.31373449997045,96.31429639994167,96.32979420002084,96.52961950004101,96.71286570001394,96.71286570001394,96.88162809994537,space,1,0.16535639995709062,None,96.88538089999929,97.3957751999842,98.39487590000499,98.3788037999766,,,,,,,,,,,,,,,,,007,001,2025-04-30_18h57.58.825,Cued GoNogo Task,2024.2.4,60.168507931590085,2025-04-30 18h58.06.195581 +0200,
block/CondBlock1.xlsx,You are about to start a block of type 1 trials.,21,21,0,Go,Go,0.14,0.2,0.05,space,blue,vertical,space,11.971945600002073,None,space,1,0.15163140010554343,None,,,,0,0,0,0,0,21,21,21,98.39487590000499,,,,,,,,,,,,,,,,98.37906659999862,98.39487590000499,99.09413969994057,99.09413969994057,99.5937799999956,99.57774159999099,99.57858229998965,99.5937799999956,99.74375220004003,99.92688970000017,99.92688970000017,100.09466740000062,space,1,0.15163140010554343,None,100.09914810000919,100.609464499983,101.60880209994502,101.59308020002209,,,,,,,,,,,,,,,,,007,001,2025-04-30_18h57.58.825,Cued GoNogo Task,2024.2.4,60.168507931590085,2025-04-30 18h58.06.195581 +0200,
block/CondBlock1.xlsx,You are about to start a block of type 1 trials.,22,22,0,Go,Go,0.15,0.2,0.05,space,blue,vertical,space,11.971945600002073,None,space,1,0.11257610004395247,None,,,,0,0,0,0,0,22,22,22,101.60880209994502,,,,,,,,,,,,,,,,101.59331409994047,101.60880209994502,102.30848230002448,102.30848230002448,102.80791630002204,102.79245019995142,102.79345190001186,102.80791630002204,102.95764279994182,103.15754119993653,103.15754119993653,103.27533149998635,space,1,0.11257610004395247,None,103.27950529998634,103.790239199996,104.78941069997381,104.77349269995466,,,,,,,,,,,,,,,,,007,001,2025-04-30_18h57.58.825,Cued GoNogo Task,2024.2.4,60.168507931590085,2025-04-30 18h58.06.195581 +0200,
block/CondBlock1.xlsx,You are about to start a block of type 1 trials.,23,23,0,Go,Go,0.23,0.05,0.2,space,green,horizontal,space,11.971945600002073,None,space,1,0.15323019993957132,None,,,,0,0,0,0,0,23,23,23,104.78941069997381,,,,,,,,,,,,,,,,104.77378129994031,104.78941069997381,105.48923399997875,105.48923399997875,105.98855979996733,105.97277869994286,105.97350550000556,105.98855979996733,106.22172130004037,106.40502189996187,106.40502189996187,106.57279390003532,space,1,0.15323019993957132,None,106.57758109993301,107.08772680000402,108.086866299971,108.07135220000055,,,,,,,,,,,,,,,,,007,001,2025-04-30_18h57.58.825,Cued GoNogo Task,2024.2.4,60.168507931590085,2025-04-30 18h58.06.195581 +0200,
block/CondBlock1.xlsx,You are about to start a block of type 1 trials.,24,24,0,Go,Go,0.2,0.2,0.05,space,blue,vertical,space,11.971945600002073,None,space,1,0.11347949993796647,None,,,,0,0,0,0,0,24,24,24,108.086866299971,,,,,,,,,,,,,,,,108.07163759996183,108.086866299971,108.78639539994765,108.78639539994765,109.28571299999021,109.27002850000281,109.27074820001144,109.28571299999021,109.48576810001396,109.68553330004215,109.68553330004215,109.80362999998033,space,1,0.11347949993796647,None,109.80752080003731,110.31836629996542,111.31741120002698,111.3016841999488,,,,,,,,,,,,,,,,,007,001,2025-04-30_18h57.58.825,Cued GoNogo Task,2024.2.4,60.168507931590085,2025-04-30 18h58.06.195581 +0200,
block/CondBlock1.xlsx,You are about to start a block of type 1 trials.,25,25,0,Go,Go,0.15,0.2,0.05,space,blue,vertical,space,11.971945600002073,None,space,1,0.1404583000112325,None,,,,0,0,0,0,0,25,25,25,111.31741120002698,,,,,,,,,,,,,,,,111.30217519996222,111.31741120002698,112.01679140003398,112.01679140003398,112.51657370000612,112.5013269999763,112.5021459000418,112.51657370000612,112.66640690003987,112.86645500001032,112.86645500001032,113.01744610001333,space,1,0.1404583000112325,None,113.02119180001318,113.5324496999383,114.53139889996964,114.51575280004181,,,,,,,,,,,,,,,,,007,001,2025-04-30_18h57.58.825,Cued GoNogo Task,2024.2.4,60.168507931590085,2025-04-30 18h58.06.195581 +0200,
block/CondBlock1.xlsx,You are about to start a block of type 1 trials.,26,26,0,NoGo,NoGo,0.2,0.2,0.05,none,blue,vertical,space,11.971945600002073,None,None,1,,,,,,0,0,0,0,0,26,26,26,114.53139889996964,,,,,,,,,,,,,,,,114.51607509993482,114.53139889996964,115.2309562000446,115.2309562000446,115.7306020000251,115.71459350001533,115.7151889000088,115.7306020000251,115.93035469995812,116.13020939996932,116.13020939996932,116.61390320002101,None,1,,,116.61638909997419,117.1292782999808,118.12856670003384,118.1126342000207,116.62965439993422,116.62965439993422,,,,,,,,,,,,,,,007,001,2025-04-30_18h57.58.825,Cued GoNogo Task,2024.2.4,60.168507931590085,2025-04-30 18h58.06.195581 +0200,
block/CondBlock1.xlsx,You are about to start a block of type 1 trials.,27,27,0,Go,Go,0.29,0.05,0.2,space,green,horizontal,space,11.971945600002073,None,space,1,0.15497150004375726,None,,,,0,0,0,0,0,27,27,27,118.12856670003384,,,,,,,,,,,,,,,,118.11289119999856,118.12856670003384,118.82804779999424,118.82804779999424,119.32744859997183,119.3116241999669,119.31216590001713,119.32744859997183,119.62733019993175,119.8107095999876,119.8107095999876,119.9780229999451,space,1,0.15497150004375726,None,119.98152040003333,120.49318210000638,121.4923633999424,121.47685640002601,,,,,,,,,,,,,,,,,007,001,2025-04-30_18h57.58.825,Cued GoNogo Task,2024.2.4,60.168507931590085,2025-04-30 18h58.06.195581 +0200,
block/CondBlock1.xlsx,You are about to start a block of type 1 trials.,28,28,0,Go,Go,0.24,0.2,0.05,space,blue,vertical,space,11.971945600002073,None,space,1,0.18486329994630069,None,,,,0,0,0,0,0,28,28,28,121.4923633999424,,,,,,,,,,,,,,,,121.47708360000979,121.4923633999424,122.19189669995103,122.19189669995103,122.69141440000385,122.67558339994866,122.67639050004072,122.69141440000385,122.94121139997151,123.12451570003759,123.12451570003759,123.32552059995942,space,1,0.18486329994630069,None,123.3291995000327,123.84068020002451,124.83959919994231,124.82377829996403,,,,,,,,,,,,,,,,,007,001,2025-04-30_18h57.58.825,Cued GoNogo Task,2024.2.4,60.168507931590085,2025-04-30 18h58.06.195581 +0200,
block/CondBlock1.xlsx,You are about to start a block of type 1 trials.,29,29,0,Go,Go,0.15,0.05,0.2,space,green,horizontal,space,11.971945600002073,None,space,1,0.13896959996782243,None,,,,0,0,0,0,0,29,29,29,124.83959919994231,,,,,,,,,,,,,,,,124.82404909993056,124.83959919994231,125.53906039998401,125.53906039998401,126.03870799997821,126.02297649998218,126.02363840001635,126.03870799997821,126.18882089992985,126.38841370004229,126.38841370004229,126.53969589993358,space,1,0.13896959996782243,None,126.54398099996615,127.05466799996793,128.0537126000272,128.03763889998663,,,,,,,,,,,,,,,,,007,001,2025-04-30_18h57.58.825,Cued GoNogo Task,2024.2.4,60.168507931590085,2025-04-30 18h58.06.195581 +0200,
block/CondBlock1.xlsx,You are about to start a block of type 1 trials.,30,30,0,Go,Go,0.23,0.2,0.05,space,green,vertical,space,11.971945600002073,None,space,1,0.13653119991067797,None,,,,0,0,0,0,0,30,30,30,128.0537126000272,,,,,,,,,,,,,,,,128.03787789994385,128.0537126000272,128.7534166999394,128.7534166999394,129.25276179995853,129.23732039995957,129.23831259994768,129.25276179995853,129.48588579997886,129.6690813000314,129.6690813000314,129.8202551000286,space,1,0.13653119991067797,None,129.82417769997846,130.33521689998452,131.33435909997206,131.31839989998844,,,,,,,,,,,,,,,,,007,001,2025-04-30_18h57.58.825,Cued GoNogo Task,2024.2.4,60.168507931590085,2025-04-30 18h58.06.195581 +0200,
block/CondBlock1.xlsx,You are about to start a block of type 1 trials.,31,31,0,Go,Go,0.28,0.2,0.05,space,green,vertical,space,11.971945600002073,None,space,1,0.11020319990348071,None,,,,0,0,0,0,0,31,31,31,131.33435909997206,,,,,,,,,,,,,,,,131.31866190000437,131.33435909997206,132.03369930002373,132.03369930002373,132.53334299998824,132.51760869997088,132.51827659993432,132.53334299998824,132.81651289993897,132.99963640002534,132.99963640002534,133.11722130002454,space,1,0.11020319990348071,None,133.12024610000663,133.63246150000487,134.63157560001127,134.61645029997453,,,,,,,,,,,,,,,,,007,001,2025-04-30_18h57.58.825,Cued GoNogo Task,2024.2.4,60.168507931590085,2025-04-30 18h58.06.195581 +0200,
block/CondBlock1.xlsx,You are about to start a block of type 1 trials.,32,32,0,Go,Go,0.19,0.2,0.05,space,green,vertical,space,11.971945600002073,None,space,1,0.1044616000726819,None,,,,0,0,0,0,0,32,32,32,134.63157560001127,,,,,,,,,,,,,,,,134.61676040000748,134.63157560001127,135.3312110999832,135.3312110999832,135.83063760004006,135.8147262999555,135.8153588999994,135.83063760004006,136.03034669999033,136.21380000002682,136.21380000002682,136.33091629995033,space,1,0.1044616000726819,None,136.33387149998453,136.84639510000125,137.84586100000888,137.8297414999688,,,,,,,,,,,,,,,,,007,001,2025-04-30_18h57.58.825,Cued GoNogo Task,2024.2.4,60.168507931590085,2025-04-30 18h58.06.195581 +0200,
block/CondBlock1.xlsx,You are about to start a block of type 1 trials.,33,33,0,Go,Go,0.12,0.2,0.05,space,green,vertical,space,11.971945600002073,None,space,1,0.13399770006071776,None,,,,0,0,0,0,0,33,33,33,137.84586100000888,,,,,,,,,,,,,,,,137.83002620004117,137.84586100000888,138.54512639995664,138.54512639995664,139.0446806999389,139.0289163000416,139.02964449999854,139.0446806999389,139.17784909997135,139.36110810004175,139.36110810004175,139.5119001000421,space,1,0.13399770006071776,None,139.51550460001454,140.02721029997338,141.02629089995753,141.01019860000815,,,,,,,,,,,,,,,,,007,001,2025-04-30_18h57.58.825,Cued GoNogo Task,2024.2.4,60.168507931590085,2025-04-30 18h58.06.195581 +0200,
block/CondBlock1.xlsx,You are about to start a block of type 1 trials.,34,34,0,Go,Go,0.18,0.2,0.05,space,blue,vertical,space,11.971945600002073,None,space,1,0.11864210001658648,None,,,,0,0,0,0,0,34,34,34,141.02629089995753,,,,,,,,,,,,,,,,141.01043679995928,141.02629089995753,141.72583250002936,141.72583250002936,142.2254139999859,142.20981519995257,142.21065529994667,142.2254139999859,142.40861209994182,142.59177870000713,142.59177870000713,142.72646609996445,space,1,0.11864210001658648,None,142.73022699996363,143.24115779995918,144.24047139997128,144.22448870004155,,,,,,,,,,,,,,,,,007,001,2025-04-30_18h57.58.825,Cued GoNogo Task,2024.2.4,60.168507931590085,2025-04-30 18h58.06.195581 +0200,
block/CondBlock1.xlsx,You are about to start a block of type 1 trials.,35,35,0,Go,Go,0.21,0.2,0.05,space,blue,vertical,space,11.971945600002073,None,space,1,0.10338920005597174,None,,,,0,0,0,0,0,35,35,35,144.24047139997128,,,,,,,,,,,,,,,,144.22477930004243,144.24047139997128,144.93988770002034,144.93988770002034,145.4394115000032,145.42341099993791,145.4239883000264,145.4394115000032,145.65599580004346,145.83905650000088,145.83905650000088,145.95710799994413,space,1,0.10338920005597174,None,145.961405799957,146.47178749996237,147.47098260000348,147.4556481000036,,,,,,,,,,,,,,,,,007,001,2025-04-30_18h57.58.825,Cued GoNogo Task,2024.2.4,60.168507931590085,2025-04-30 18h58.06.195581 +0200,
block/CondBlock1.xlsx,You are about to start a block of type 1 trials.,36,36,0,Go,Go,0.2,0.2,0.05,space,green,vertical,space,11.971945600002073,None,space,1,0.10450579994358122,None,,,,0,0,0,0,0,36,36,36,147.47098260000348,,,,,,,,,,,,,,,,147.45611929998267,147.47098260000348,148.17065750004258,148.17065750004258,148.67019059997983,148.65427689999342,148.65491979999933,148.67019059997983,148.86993109993637,149.0698048999766,149.0698048999766,149.18792109994683,space,1,0.10450579994358122,None,149.19259700004477,149.7026349999942,150.70195389993023,150.68575830000918,,,,,,,,,,,,,,,,,007,001,2025-04-30_18h57.58.825,Cued GoNogo Task,2024.2.4,60.168507931590085,2025-04-30 18h58.06.195581 +0200,
block/CondBlock1.xlsx,You are about to start a block of type 1 trials.,37,37,0,Go,Go,0.45,0.05,0.2,space,blue,horizontal,space,11.971945600002073,None,space,1,0.19206179992761463,None,,,,0,0,0,0,0,37,37,37,150.70195389993023,,,,,,,,,,,,,,,,150.68602699995972,150.70195389993023,151.40135499997996,151.40135499997996,151.90080599999055,151.8847016999498,151.88518929993734,151.90080599999055,152.3503294000402,152.55021170002874,152.55021170002874,152.75142230000347,space,1,0.19206179992761463,None,152.7554485000437,153.26634520001244,154.2654026999371,154.2497634999454,,,,,,,,,,,,,,,,,007,001,2025-04-30_18h57.58.825,Cued GoNogo Task,2024.2.4,60.168507931590085,2025-04-30 18h58.06.195581 +0200,
block/CondBlock1.xlsx,You are about to start a block of type 1 trials.,38,38,0,Go,Go,0.13,0.05,0.2,space,blue,horizontal,space,11.971945600002073,None,space,1,0.11378510005306453,None,,,,0,0,0,0,0,38,38,38,154.2654026999371,,,,,,,,,,,,,,,,154.25005499995314,154.2654026999371,154.96521249995567,154.96521249995567,155.46466089994647,155.4491815000074,155.45020780002233,155.46466089994647,155.5979785999516,155.78087060002144,155.78087060002144,155.8993838999886,space,1,0.11378510005306453,None,155.90418599999975,156.41371829994023,157.41281769995112,157.39726580004208,,,,,,,,,,,,,,,,,007,001,2025-04-30_18h57.58.825,Cued GoNogo Task,2024.2.4,60.168507931590085,2025-04-30 18h58.06.195581 +0200,
block/CondBlock1.xlsx,You are about to start a block of type 1 trials.,39,39,0,Go,Go,0.46,0.2,0.05,space,blue,vertical,space,11.971945600002073,None,space,1,0.1528004000429064,None,,,,0,0,0,0,0,39,39,39,157.41281769995112,,,,,,,,,,,,,,,,157.39757419994567,157.41281769995112,158.11242260003928,158.11242260003928,158.61200500000268,158.59585689997766,158.59633710002527,158.61200500000268,159.07817590003833,159.2614722000435,159.2614722000435,159.429246100015,space,1,0.1528004000429064,None,159.43241040001158,159.94423859997187,,160.94351260003168,,,,,,,,,,,,,,,,,007,001,2025-04-30_18h57.58.825,Cued GoNogo Task,2024.2.4,60.168507931590085,2025-04-30 18h58.06.195581 +0200,
block/CondBlock1.xlsx,You are about to start a block of type 1 trials.,40,40,0,Go,Go,0.29,0.2,0.05,space,blue,vertical,space,11.971945600002073,None,space,1,0.13354670000262558,None,,,,0,0,0,0,0,40,40,40,160.9599527999526,,,,,,,,,,,,,,,,160.9437763999449,160.9599527999526,161.6427291999571,161.65951439994387,162.14240160002373,162.1268393000355,162.1276641000295,162.14240160002373,162.4420064999722,162.62522679998074,162.62522679998074,162.76089789997786,space,1,0.13354670000262558,None,162.7643983999733,163.2748499000445,,164.27403069997672,,,,,,,,,,,,,,,,,007,001,2025-04-30_18h57.58.825,Cued GoNogo Task,2024.2.4,60.168507931590085,2025-04-30 18h58.06.195581 +0200,
block/CondBlock1.xlsx,You are about to start a block of type 1 trials.,41,41,0,Go,Go,0.22,0.2,0.05,space,blue,vertical,space,11.971945600002073,None,space,1,0.13396420003846288,None,,,,0,0,0,0,0,41,41,41,164.29060159996152,,,,,,,,,,,,,,,,164.27428190002684,164.29060159996152,164.97342109994497,164.99002499994822,165.47286750003695,165.45715329993982,165.4577935000416,165.47286750003695,165.70609110000078,165.8891614000313,165.8891614000313,166.0402199999662,space,1,0.13396420003846288,None,166.04067549994215,166.555466299993,167.55465770000592,167.53887679998297,,,,,,,,,,,,,,,,,007,001,2025-04-30_18h57.58.825,Cued GoNogo Task,2024.2.4,60.168507931590085,2025-04-30 18h58.06.195581 +0200,
block/CondBlock1.xlsx,You are about to start a block of type 1 trials.,42,42,0,Go,Go,0.49,0.2,0.05,space,blue,vertical,space,11.971945600002073,None,space,1,0.14635659998748451,None,,,,0,0,0,0,0,42,42,42,167.55465770000592,,,,,,,,,,,,,,,,167.5394888999872,167.55465770000592,168.25397149997298,168.25397149997298,168.75352220004424,168.73801850003656,168.7388377999887,168.75352220004424,169.25310700002592,169.43639659998007,169.43639659998007,169.58754440001212,space,1,0.14635659998748451,None,169.59187969996128,170.1023889000062,171.10162740002852,171.08576549997088,,,,,,,,,,,,,,,,,007,001,2025-04-30_18h57.58.825,Cued GoNogo Task,2024.2.4,60.168507931590085,2025-04-30 18h58.06.195581 +0200,
block/CondBlock1.xlsx,You are about to start a block of type 1 trials.,43,43,0,Go,Go,0.2,0.2,0.05,space,blue,vertical,space,11.971945600002073,None,space,1,0.14647319994401187,None,,,,0,0,0,0,0,43,43,43,171.10162740002852,,,,,,,,,,,,,,,,171.08602039993275,171.10162740002852,171.80102719995193,171.80102719995193,172.30063469999004,172.2846034000395,172.28509419993497,172.30063469999004,172.50053900002968,172.70033589995,172.70033589995,172.85136880003847,space,1,0.14647319994401187,None,172.85180329997092,173.36639989994,174.36572230001912,174.34997089998797,,,,,,,,,,,,,,,,,007,001,2025-04-30_18h57.58.825,Cued GoNogo Task,2024.2.4,60.168507931590085,2025-04-30 18h58.06.195581 +0200,
block/CondBlock1.xlsx,You are about to start a block of type 1 trials.,44,44,0,Go,Go,0.3,0.05,0.2,space,blue,horizontal,space,11.971945600002073,None,space,1,0.11867620004341006,None,,,,0,0,0,0,0,44,44,44,174.36572230001912,,,,,,,,,,,,,,,,174.35041990003083,174.36572230001912,175.06519370002206,175.06519370002206,175.56473879993428,175.54860630002804,175.54920080001466,175.56473879993428,175.86469099996611,176.06417649996,176.06417649996,176.19869879994076,space,1,0.11867620004341006,None,176.20235729997512,176.7137074000202,177.71291560004465,177.69686919997912,,,,,,,,,,,,,,,,,007,001,2025-04-30_18h57.58.825,Cued GoNogo Task,2024.2.4,60.168507931590085,2025-04-30 18h58.06.195581 +0200,
block/CondBlock1.xlsx,You are about to start a block of type 1 trials.,45,45,0,NoGo,NoGo,0.21,0.05,0.2,none,green,horizontal,space,11.971945600002073,None,space,0,0.17472159990575165,None,,,,0,0,0,0,0,45,45,45,177.71291560004465,,,,,,,,,,,,,,,,177.69709889998194,177.71291560004465,178.4121333999792,178.4121333999792,178.91185599996243,178.89594550000038,178.89658439997584,178.91185599996243,179.1283836000366,179.31150359997991,179.31150359997991,179.4958556999918,space,0,0.17472159990575165,None,179.50537539995275,180.01106319995597,181.01005309994798,180.99456809996627,,,,,,,,,,,,,,,,,007,001,2025-04-30_18h57.58.825,Cued GoNogo Task,2024.2.4,60.168507931590085,2025-04-30 18h58.06.195581 +0200,
block/CondBlock1.xlsx,You are about to start a block of type 1 trials.,46,46,0,NoGo,NoGo,0.45,0.05,0.2,none,blue,horizontal,space,11.971945600002073,None,None,1,,,,,,0,0,0,0,0,46,46,46,181.01005309994798,,,,,,,,,,,,,,,,180.99487649998628,181.01005309994798,181.70955090003554,181.70955090003554,182.20930009998847,182.19312800001353,182.19393940002192,182.20930009998847,182.6589236999862,182.85866779997014,182.85866779997014,183.34264950000215,None,1,,,183.34570689999964,183.85790189995896,184.85698439995758,184.84156999993138,183.35810910002328,183.35810910002328,,,,,,,,,,,,,,,007,001,2025-04-30_18h57.58.825,Cued GoNogo Task,2024.2.4,60.168507931590085,2025-04-30 18h58.06.195581 +0200,
block/CondBlock1.xlsx,You are about to start a block of type 1 trials.,47,47,0,Go,Go,0.24,0.05,0.2,space,green,horizontal,space,11.971945600002073,None,space,1,0.21444229991175234,None,,,,0,0,0,0,0,47,47,47,184.85698439995758,,,,,,,,,,,,,,,,184.84200609999243,184.85698439995758,185.55638460000046,185.55638460000046,186.05620769993402,186.0401792000048,186.04083069995977,186.05620769993402,186.30569619999733,186.48888389999047,186.48888389999047,186.70682760002092,space,1,0.21444229991175234,None,186.71025869995356,187.22178969997913,188.22088899998926,188.205063899979,,,,,,,,,,,,,,,,,007,001,2025-04-30_18h57.58.825,Cued GoNogo Task,2024.2.4,60.168507931590085,2025-04-30 18h58.06.195581 +0200,
block/CondBlock1.xlsx,You are about to start a block of type 1 trials.,48,48,0,NoGo,NoGo,0.15,0.2,0.05,none,blue,vertical,space,11.971945600002073,None,None,1,,,,,,0,0,0,0,0,48,48,48,188.22088899998926,,,,,,,,,,,,,,,,188.2053594000172,188.22088899998926,188.92045969993342,188.92045969993342,189.41990109998733,189.40388080000412,189.40449570002966,189.41990109998733,189.56977399997413,189.769654899952,189.769654899952,190.25331099994946,None,1,,,190.25579379999544,190.76876180002,191.76791920000687,191.75198219995946,190.26919989997987,190.26919989997987,,,,,,,,,,,,,,,007,001,2025-04-30_18h57.58.825,Cued GoNogo Task,2024.2.4,60.168507931590085,2025-04-30 18h58.06.195581 +0200,
block/CondBlock1.xlsx,You are about to start a block of type 1 trials.,49,49,0,Go,Go,0.12,0.05,0.2,space,blue,horizontal,space,11.971945600002073,None,space,1,0.13079710002057254,None,,,,0,0,0,0,0,49,49,49,191.76791920000687,,,,,,,,,,,,,,,,191.75221870001405,191.76791920000687,192.4675111999968,192.4675111999968,192.96705420000944,192.9509529999923,192.95137289993,192.96705420000944,193.10013539995998,193.28324240003712,193.28324240003712,193.41754429996945,space,1,0.13079710002057254,None,193.4203722999664,193.93302679993212,194.9320424000034,194.9161643999396,,,,,,,,,,,,,,,,,007,001,2025-04-30_18h57.58.825,Cued GoNogo Task,2024.2.4,60.168507931590085,2025-04-30 18h58.06.195581 +0200,
block/CondBlock1.xlsx,You are about to start a block of type 1 trials.,50,50,0,Go,Go,0.22,0.2,0.05,space,green,vertical,space,11.971945600002073,None,space,1,0.09119810000993311,None,,,,0,0,0,0,0,50,50,50,194.9320424000034,,,,,,,,,,,,,,,,194.91641679999884,194.9320424000034,195.63154299999587,195.63154299999587,196.13118959998246,196.11511060001794,196.115767100011,196.13118959998246,196.3641951000318,196.54747079999652,196.54747079999652,196.6487882999936,space,1,0.09119810000993311,None,196.65417170000728,197.16373050003313,198.16268980002496,198.1468584999675,,,,,,,,,,,,,,,,,007,001,2025-04-30_18h57.58.825,Cued GoNogo Task,2024.2.4,60.168507931590085,2025-04-30 18h58.06.195581 +0200,
block/CondBlock1.xlsx,You are about to start a block of type 1 trials.,51,51,0,Go,Go,0.28,0.05,0.2,space,green,horizontal,space,11.971945600002073,None,space,1,0.1631211000494659,None,,,,0,0,0,0,0,51,51,51,198.16268980002496,,,,,,,,,,,,,,,,198.14712440001313,198.16268980002496,198.86199420003686,198.86199420003686,199.36175739997998,199.3457170999609,199.3463278999552,199.36175739997998,199.64480879995972,199.8280734999571,199.8280734999571,199.99562629999127,space,1,0.1631211000494659,None,199.99911640002392,200.51096989994403,,201.51027359999716,,,,,,,,,,,,,,,,,007,001,2025-04-30_18h57.58.825,Cued GoNogo Task,2024.2.4,60.168507931590085,2025-04-30 18h58.06.195581 +0200,
block/CondBlock1.xlsx,You are about to start a block of type 1 trials.,52,52,0,Go,Go,0.23,0.2,0.05,space,green,vertical,space,11.971945600002073,None,space,1,0.15236159996129572,None,,,,0,0,0,0,0,52,52,52,201.52662819996476,,,,,,,,,,,,,,,,201.51056890003383,201.52662819996476,202.20934469997883,202.22604259999935,202.7089276999468,202.6935497999657,202.6944595000241,202.7089276999468,202.9420198999578,203.12530259997584,203.12530259997584,203.29287989996374,space,1,0.15236159996129572,None,203.29633929999545,203.80805729993153,204.80721170001198,204.7915619999403,,,,,,,,,,,,,,,,,007,001,2025-04-30_18h57.58.825,Cued GoNogo Task,2024.2.4,60.168507931590085,2025-04-30 18h58.06.195581 +0200,
block/CondBlock1.xlsx,You are about to start a block of type 1 trials.,53,53,0,Go,Go,0.22,0.05,0.2,space,green,horizontal,space,11.971945600002073,None,space,1,0.12790490000043064,None,,,,0,0,0,0,0,53,53,53,204.80721170001198,,,,,,,,,,,,,,,,204.79201800003648,204.80721170001198,205.50665460003074,205.50665460003074,206.0062189999735,205.99052380002104,205.99194600002375,206.0062189999735,206.2395057999529,206.42250380001497,206.42250380001497,206.55669250001665,space,1,0.12790490000043064,None,206.55990039999597,207.0720431000227,208.07114889996592,208.05501160002314,,,,,,,,,,,,,,,,,007,001,2025-04-30_18h57.58.825,Cued GoNogo Task,2024.2.4,60.168507931590085,2025-04-30 18h58.06.195581 +0200,
block/CondBlock1.xlsx,You are about to start a block of type 1 trials.,54,54,0,NoGo,NoGo,0.14,0.05,0.2,none,green,horizontal,space,11.971945600002073,None,None,1,,,,,,0,0,0,0,0,54,54,54,208.07114889996592,,,,,,,,,,,,,,,,208.05523149995133,208.07114889996592,208.77063639997505,208.77063639997505,209.270083899959,209.25430170004256,209.25495440000668,209.270083899959,209.4200708999997,209.60337499994785,209.60337499994785,210.08702009997796,None,1,,,210.09012039995287,210.60240239999257,211.60182830004487,211.58640020003077,210.10275870002806,210.10275870002806,,,,,,,,,,,,,,,007,001,2025-04-30_18h57.58.825,Cued GoNogo Task,2024.2.4,60.168507931590085,2025-04-30 18h58.06.195581 +0200,
block/CondBlock1.xlsx,You are about to start a block of type 1 trials.,55,55,0,Go,Go,0.15,0.2,0.05,space,blue,vertical,space,11.971945600002073,None,space,1,0.1115655000321567,None,,,,0,0,0,0,0,55,55,55,211.60182830004487,,,,,,,,,,,,,,,,211.58680489996914,211.60182830004487,212.30106339999475,212.30106339999475,212.80059390002862,212.78496129997075,212.78574309998658,212.80059390002862,212.95041980000678,213.1502742000157,213.1502742000157,213.2679978000233,space,1,0.1115655000321567,None,213.27125260001048,213.7833510999335,214.78238330001477,214.76674829993863,,,,,,,,,,,,,,,,,007,001,2025-04-30_18h57.58.825,Cued GoNogo Task,2024.2.4,60.168507931590085,2025-04-30 18h58.06.195581 +0200,
block/CondBlock1.xlsx,You are about to start a block of type 1 trials.,56,56,0,Go,Go,0.47,0.2,0.05,space,blue,vertical,space,11.971945600002073,None,space,1,0.13403650000691414,None,,,,0,0,0,0,0,56,56,56,214.78238330001477,,,,,,,,,,,,,,,,214.7671364999842,214.78238330001477,215.4817594999913,215.4817594999913,215.98136710003018,215.96559829998296,215.96633389999624,215.98136710003018,216.46428479999304,216.6476158000296,216.6476158000296,216.79856529994868,space,1,0.13403650000691414,None,216.80266329995357,217.31361109996215,218.31281779997516,218.29730700002983,,,,,,,,,,,,,,,,,007,001,2025-04-30_18h57.58.825,Cued GoNogo Task,2024.2.4,60.168507931590085,2025-04-30 18h58.06.195581 +0200,
block/CondBlock1.xlsx,You are about to start a block of type 1 trials.,57,57,0,NoGo,NoGo,0.42,0.2,0.05,none,green,vertical,space,11.971945600002073,None,None,1,,,,,,0,0,0,0,0,57,57,57,218.31281779997516,,,,,,,,,,,,,,,,218.29767260001972,218.31281779997516,219.0121904000407,219.0121904000407,219.51169009995647,219.49591199995484,219.49648850003723,219.51169009995647,219.94483439996839,220.1279481999809,220.1279481999809,220.61194680002518,None,1,,,220.61505699995905,221.12709029996768,222.1263908999972,222.11035410000477,220.6276465000119,220.6276465000119,,,,,,,,,,,,,,,007,001,2025-04-30_18h57.58.825,Cued GoNogo Task,2024.2.4,60.168507931590085,2025-04-30 18h58.06.195581 +0200,
block/CondBlock1.xlsx,You are about to start a block of type 1 trials.,58,58,0,Go,Go,0.22,0.05,0.2,space,green,horizontal,space,11.971945600002073,None,space,1,0.21696839993819594,None,,,,0,0,0,0,0,58,58,58,222.1263908999972,,,,,,,,,,,,,,,,222.1106434999965,222.1263908999972,222.82586340000853,222.82586340000853,223.32553949998692,223.30922689998988,223.30977519997396,223.32553949998692,223.5585107000079,223.7418619999662,223.7418619999662,223.97637579997536,space,1,0.21696839993819594,None,223.98118729994167,224.49110650003422,225.4901823999826,225.4743204000406,,,,,,,,,,,,,,,,,007,001,2025-04-30_18h57.58.825,Cued GoNogo Task,2024.2.4,60.168507931590085,2025-04-30 18h58.06.195581 +0200,
block/CondBlock1.xlsx,You are about to start a block of type 1 trials.,59,59,0,Go,Go,0.3,0.2,0.05,space,blue,vertical,space,11.971945600002073,None,space,1,0.24853630003053695,None,,,,0,0,0,0,0,59,59,59,225.4901823999826,,,,,,,,,,,,,,,,225.47457149997354,225.4901823999826,226.18960299994797,226.18960299994797,226.6893296999624,226.67327659996226,226.67383049998898,226.6893296999624,226.98903950001113,227.18886949995067,227.18886949995067,227.4397154999897,space,1,0.24853630003053695,None,227.44242810003925,227.95499470003415,228.95424019999336,228.93812029995024,,,,,,,,,,,,,,,,,007,001,2025-04-30_18h57.58.825,Cued GoNogo Task,2024.2.4,60.168507931590085,2025-04-30 18h58.06.195581 +0200,
block/CondBlock1.xlsx,You are about to start a block of type 1 trials.,60,60,0,NoGo,NoGo,0.24,0.2,0.05,none,blue,vertical,space,11.971945600002073,None,None,1,,,,,,0,0,0,0,0,60,60,60,228.95424019999336,,,,,,,,,,,,,,,,228.93839010002557,228.95424019999336,229.65340149996337,229.65340149996337,230.15323109994642,230.1369807999581,230.13759759999812,230.15323109994642,230.40289549995214,230.5861198999919,230.5861198999919,231.069837499992,None,1,,,231.07253130001482,231.58521399996243,232.5844052999746,232.5683673999738,231.08559509995393,231.08559509995393,,,,,,,,,,,,,,,007,001,2025-04-30_18h57.58.825,Cued GoNogo Task,2024.2.4,60.168507931590085,2025-04-30 18h58.06.195581 +0200,
block/CondBlock1.xlsx,You are about to start a block of type 1 trials.,61,61,0,NoGo,NoGo,0.1,0.2,0.05,none,green,vertical,space,11.971945600002073,None,None,1,,,,,,0,0,0,0,0,61,61,61,232.5844052999746,,,,,,,,,,,,,,,,232.5686621000059,232.5844052999746,233.28383249999024,233.28383249999024,233.78338529996108,233.7679744999623,233.76864220004063,233.78338529996108,233.88318180001806,234.08318059996236,234.08318059996236,234.56701699993573,None,1,,,234.5675220999401,235.08244949998334,236.08145850000437,236.06602949998342,234.58286439999938,234.58286439999938,,,,,,,,,,,,,,,007,001,2025-04-30_18h57.58.825,Cued GoNogo Task,2024.2.4,60.168507931590085,2025-04-30 18h58.06.195581 +0200,
block/CondBlock1.xlsx,You are about to start a block of type 1 trials.,62,62,0,Go,Go,0.45,0.05,0.2,space,blue,horizontal,space,11.971945600002073,None,space,1,0.1395827999804169,None,,,,0,0,0,0,0,62,62,62,236.08145850000437,,,,,,,,,,,,,,,,236.0663337999722,236.08145850000437,236.7808102000272,236.7808102000272,237.28062999993563,237.26456309994683,237.26508159993682,237.28062999993563,237.73009500000626,237.93016680004075,237.93016680004075,238.08099149994086,space,1,0.1395827999804169,None,238.08504399994854,238.5961152999662,239.59531110001262,239.57946939999238,,,,,,,,,,,,,,,,,007,001,2025-04-30_18h57.58.825,Cued GoNogo Task,2024.2.4,60.168507931590085,2025-04-30 18h58.06.195581 +0200,
block/CondBlock1.xlsx,You are about to start a block of type 1 trials.,63,63,0,Go,Go,0.1,0.05,0.2,space,green,horizontal,space,11.971945600002073,None,space,1,0.16798729996662587,None,,,,0,0,0,0,0,63,63,63,239.59531110001262,,,,,,,,,,,,,,,,239.5797564999666,239.59531110001262,240.2946848999709,240.2946848999709,240.7942942000227,240.77819690003525,240.77881259995047,240.7942942000227,240.89423929993063,241.09409259993117,241.09409259993117,241.2785356999375,space,1,0.16798729996662587,None,241.2837325000437,241.79353659995832,242.79265890002716,242.77663440001197,,,,,,,,,,,,,,,,,007,001,2025-04-30_18h57.58.825,Cued GoNogo Task,2024.2.4,60.168507931590085,2025-04-30 18h58.06.195581 +0200,
block/CondBlock1.xlsx,You are about to start a block of type 1 trials.,64,64,0,Go,Go,0.19,0.05,0.2,space,blue,horizontal,space,11.971945600002073,None,space,1,0.11967500008177012,None,,,,0,0,0,0,0,64,64,64,242.79265890002716,,,,,,,,,,,,,,,,242.77692239999305,242.79265890002716,243.4921064999653,243.4921064999653,243.9916816999903,243.97599359997548,243.97667060000822,243.9916816999903,244.19141099997796,244.37475359998643,244.37475359998643,244.50924719998147,space,1,0.11967500008177012,None,244.51319119997788,245.0242420999566,246.02344170003198,246.00766340002883,,,,,,,,,,,,,,,,,007,001,2025-04-30_18h57.58.825,Cued GoNogo Task,2024.2.4,60.168507931590085,2025-04-30 18h58.06.195581 +0200,
block/CondBlock1.xlsx,You are about to start a block of type 1 trials.,65,65,0,Go,Go,0.21,0.2,0.05,space,blue,vertical,space,11.971945600002073,None,space,1,0.14346449996810406,None,,,,0,0,0,0,0,65,65,65,246.02344170003198,,,,,,,,,,,,,,,,246.00794139993377,246.02344170003198,246.72269079997204,246.72269079997204,247.22253299993463,247.20649839995895,247.2071142999921,247.22253299993463,247.43875059997663,247.6220869999379,247.6220869999379,247.77350260003004,space,1,0.14346449996810406,None,247.77675259998068,248.2883553999709,,249.28771669999696,,,,,,,,,,,,,,,,,007,001,2025-04-30_18h57.58.825,Cued GoNogo Task,2024.2.4,60.168507931590085,2025-04-30 18h58.06.195581 +0200,
block/CondBlock1.xlsx,You are about to start a block of type 1 trials.,66,66,0,Go,Go,0.18,0.05,0.2,space,blue,horizontal,space,11.971945600002073,None,space,1,0.16962609998881817,None,,,,0,0,0,0,0,66,66,66,249.3039698000066,,,,,,,,,,,,,,,,249.28804939996917,249.3039698000066,249.9867368999403,250.00342459999956,250.4864338999614,250.47114279994275,250.47223279997706,250.4864338999614,250.66961620002985,250.85277460003272,250.85277460003272,251.03676829999313,space,1,0.16962609998881817,None,251.04027500003576,251.552054699976,252.55138680001255,252.53508129995316,,,,,,,,,,,,,,,,,007,001,2025-04-30_18h57.58.825,Cued GoNogo Task,2024.2.4,60.168507931590085,2025-04-30 18h58.06.195581 +0200,
block/CondBlock1.xlsx,You are about to start a block of type 1 trials.,67,67,0,Go,Go,0.29,0.2,0.05,space,green,vertical,space,11.971945600002073,None,space,1,0.19661169999744743,None,,,,0,0,0,0,0,67,67,67,252.55138680001255,,,,,,,,,,,,,,,,252.53529219992924,252.55138680001255,253.2507706999313,253.2507706999313,253.75041149999015,253.73446279997006,253.7351437000325,253.75041149999015,254.0501726999646,254.2333589999471,254.2333589999471,254.43433519999962,space,1,0.19661169999744743,None,254.43918099999428,254.9493296999717,255.9485185999656,255.93302540003788,,,,,,,,,,,,,,,,,007,001,2025-04-30_18h57.58.825,Cued GoNogo Task,2024.2.4,60.168507931590085,2025-04-30 18h58.06.195581 +0200,
block/CondBlock1.xlsx,You are about to start a block of type 1 trials.,68,68,0,NoGo,NoGo,0.24,0.2,0.05,none,blue,vertical,space,11.971945600002073,None,None,1,,,,,,0,0,0,0,0,68,68,68,255.9485185999656,,,,,,,,,,,,,,,,255.933471599943,255.9485185999656,256.6480309999315,256.6480309999315,257.14759750000667,257.13170529995114,257.1323966999771,257.14759750000667,257.3974626000272,257.5804548000451,257.5804548000451,258.06426260003354,None,1,,,258.0671483000042,258.5796777999494,259.5788495000452,259.5631297000218,258.0801584000001,258.0801584000001,,,,,,,,,,,,,,,007,001,2025-04-30_18h57.58.825,Cued GoNogo Task,2024.2.4,60.168507931590085,2025-04-30 18h58.06.195581 +0200,
block/CondBlock1.xlsx,You are about to start a block of type 1 trials.,69,69,0,Go,Go,0.27,0.05,0.2,space,green,horizontal,space,11.971945600002073,None,space,1,0.1381814000196755,None,,,,0,0,0,0,0,69,69,69,259.5788495000452,,,,,,,,,,,,,,,,259.56346340000164,259.5788495000452,260.2782252000179,260.2782252000179,260.77791509998497,260.7622131999815,260.76303499995265,260.77791509998497,261.0610151999863,261.2441631000256,261.2441631000256,261.3951961999992,space,1,0.1381814000196755,None,261.3996809000382,261.910209099995,262.9094055999303,262.89381030004006,,,,,,,,,,,,,,,,,007,001,2025-04-30_18h57.58.825,Cued GoNogo Task,2024.2.4,60.168507931590085,2025-04-30 18h58.06.195581 +0200,
block/CondBlock1.xlsx,You are about to start a block of type 1 trials.,70,70,0,Go,Go,0.25,0.2,0.05,space,green,vertical,space,11.971945600002073,None,space,1,0.12880890001542866,None,,,,0,0,0,0,0,70,70,70,262.9094055999303,,,,,,,,,,,,,,,,262.8941408999963,262.9094055999303,263.608791799983,263.608791799983,264.1085121999495,264.0925840999698,264.09334160003345,264.1085121999495,264.35819659999106,264.5581774000311,264.5581774000311,264.6924923999468,space,1,0.12880890001542866,None,264.69610800000373,265.2077150000259,266.20683809998445,266.190771900001,,,,,,,,,,,,,,,,,007,001,2025-04-30_18h57.58.825,Cued GoNogo Task,2024.2.4,60.168507931590085,2025-04-30 18h58.06.195581 +0200,
block/CondBlock1.xlsx,You are about to start a block of type 1 trials.,71,71,0,Go,Go,0.28,0.05,0.2,space,green,horizontal,space,11.971945600002073,None,space,1,0.12662400002591312,None,,,,0,0,0,0,0,71,71,71,266.20683809998445,,,,,,,,,,,,,,,,266.1910103999544,266.20683809998445,266.9061684999615,266.9061684999615,267.40578359994106,267.39002149994485,267.39081469993107,267.40578359994106,267.68873990001157,267.87200720002875,267.87200720002875,268.0065547999693,space,1,0.12662400002591312,None,268.01086659997236,268.5214983000187,269.5205525000347,269.5046270999592,,,,,,,,,,,,,,,,,007,001,2025-04-30_18h57.58.825,Cued GoNogo Task,2024.2.4,60.168507931590085,2025-04-30 18h58.06.195581 +0200,
block/CondBlock1.xlsx,You are about to start a block of type 1 trials.,72,72,0,Go,Go,0.14,0.05,0.2,space,blue,horizontal,space,11.971945600002073,None,space,1,0.14501660002861172,None,,,,0,0,0,0,0,72,72,72,269.5205525000347,,,,,,,,,,,,,,,,269.5048825000413,269.5205525000347,270.2201679999707,270.2201679999707,270.71966339997016,270.7040631000418,270.70475399994757,270.71966339997016,270.86960590002127,271.05283950001467,271.05283950001467,271.2038153000176,space,1,0.14501660002861172,None,271.20761629997287,271.7188449000241,272.71808979997877,272.70215849997476,,,,,,,,,,,,,,,,,007,001,2025-04-30_18h57.58.825,Cued GoNogo Task,2024.2.4,60.168507931590085,2025-04-30 18h58.06.195581 +0200,
block/CondBlock1.xlsx,You are about to start a block of type 1 trials.,73,73,0,Go,Go,0.11,0.05,0.2,space,blue,horizontal,space,11.971945600002073,None,space,1,0.08491740003228188,None,,,,0,0,0,0,0,73,73,73,272.71808979997877,,,,,,,,,,,,,,,,272.7024373000022,272.71808979997877,273.41751790000126,273.41751790000126,273.91699009994045,273.9014214000199,273.9022213999415,273.91699009994045,274.03366039996035,274.2168340999633,274.2168340999633,274.31802729994524,space,1,0.08491740003228188,None,274.3221820000326,274.8329339999473,275.832028200035,275.8160390999401,,,,,,,,,,,,,,,,,007,001,2025-04-30_18h57.58.825,Cued GoNogo Task,2024.2.4,60.168507931590085,2025-04-30 18h58.06.195581 +0200,
block/CondBlock1.xlsx,You are about to start a block of type 1 trials.,74,74,0,Go,Go,0.22,0.2,0.05,space,blue,vertical,space,11.971945600002073,None,space,1,0.16743579995818436,None,,,,0,0,0,0,0,74,74,74,275.832028200035,,,,,,,,,,,,,,,,275.81620689993724,275.832028200035,276.53144079993945,276.53144079993945,277.0311597000109,277.01546190003864,277.016056100023,277.0311597000109,277.26440929993987,277.44744369992986,277.44744369992986,277.63183049997315,space,1,0.16743579995818436,None,277.6360063999891,278.14683220000006,279.14611269999295,279.13013559998944,,,,,,,,,,,,,,,,,007,001,2025-04-30_18h57.58.825,Cued GoNogo Task,2024.2.4,60.168507931590085,2025-04-30 18h58.06.195581 +0200,
block/CondBlock1.xlsx,You are about to start a block of type 1 trials.,75,75,0,Go,Go,0.26,0.05,0.2,space,blue,horizontal,space,11.971945600002073,None,space,1,0.12372180004604161,None,,,,0,0,0,0,0,75,75,75,279.14611269999295,,,,,,,,,,,,,,,,279.13034229993355,279.14611269999295,279.8455106000183,279.8455106000183,280.34519609995186,280.329047700041,280.3296951999655,280.34519609995186,280.61144310003147,280.7946024000412,280.7946024000412,280.9292903000023,space,1,0.12372180004604161,None,280.93265319999773,281.44429629994556,282.4433057999704,282.42795539996587,,,,,,,,,,,,,,,,,007,001,2025-04-30_18h57.58.825,Cued GoNogo Task,2024.2.4,60.168507931590085,2025-04-30 18h58.06.195581 +0200,
block/CondBlock1.xlsx,You are about to start a block of type 1 trials.,76,76,0,Go,Go,0.14,0.2,0.05,space,green,vertical,space,11.971945600002073,None,space,1,0.13412429997697473,None,,,,0,0,0,0,0,76,76,76,282.4433057999704,,,,,,,,,,,,,,,,282.4282776999753,282.4433057999704,283.14254489995074,283.14254489995074,283.64248279994354,283.6264693000121,283.6270169999916,283.64248279994354,283.79224450001493,283.97551629994996,283.97551629994996,284.1264894999331,space,1,0.13412429997697473,None,284.129540199996,284.64160550001543,285.64058500004467,285.6249024999561,,,,,,,,,,,,,,,,,007,001,2025-04-30_18h57.58.825,Cued GoNogo Task,2024.2.4,60.168507931590085,2025-04-30 18h58.06.195581 +0200,
block/CondBlock1.xlsx,You are about to start a block of type 1 trials.,77,77,0,Go,Go,0.18,0.05,0.2,space,green,horizontal,space,11.971945600002073,None,space,1,0.14466150000225753,None,,,,0,0,0,0,0,77,77,77,285.64058500004467,,,,,,,,,,,,,,,,285.62510099995416,285.64058500004467,286.3401984999655,286.3401984999655,286.8396442999365,286.82396820001304,286.8246239,286.8396442999365,287.0228967999574,287.2062682999531,287.2062682999531,287.3572023999877,space,1,0.14466150000225753,None,287.3625637999503,287.8723997999914,288.87144499993883,288.85606629995164,,,,,,,,,,,,,,,,,007,001,2025-04-30_18h57.58.825,Cued GoNogo Task,2024.2.4,60.168507931590085,2025-04-30 18h58.06.195581 +0200,
block/CondBlock1.xlsx,You are about to start a block of type 1 trials.,78,78,0,NoGo,NoGo,0.27,0.05,0.2,none,blue,horizontal,space,11.971945600002073,None,None,1,,,,,,0,0,0,0,0,78,78,78,288.87144499993883,,,,,,,,,,,,,,,,288.85645490000024,288.87144499993883,289.57084279996343,289.57084279996343,290.0704403000418,290.05455639993306,290.05517820001114,290.0704403000418,290.35373259999324,290.5368563999655,290.5368563999655,291.0203552999301,None,1,,,291.0229707999388,291.53589820000343,292.53505910001695,292.51923199999146,291.03622290003113,291.03622290003113,,,,,,,,,,,,,,,007,001,2025-04-30_18h57.58.825,Cued GoNogo Task,2024.2.4,60.168507931590085,2025-04-30 18h58.06.195581 +0200,
block/CondBlock1.xlsx,You are about to start a block of type 1 trials.,79,79,0,NoGo,NoGo,0.26,0.2,0.05,none,blue,vertical,space,11.971945600002073,None,None,1,,,,,,0,0,0,0,0,79,79,79,292.53505910001695,,,,,,,,,,,,,,,,292.5195493999636,292.53505910001695,293.2344089000253,293.2344089000253,293.7340802999679,293.71856639999896,293.71946709998883,293.7340802999679,294.0005702000344,294.1838448999915,294.1838448999915,294.6674038999481,None,1,,,294.66786689998116,295.1829253999749,296.1821377000306,296.1659819999477,294.6834589999635,294.6834589999635,,,,,,,,,,,,,,,007,001,2025-04-30_18h57.58.825,Cued GoNogo Task,2024.2.4,60.168507931590085,2025-04-30 18h58.06.195581 +0200,
block/CondBlock1.xlsx,You are about to start a block of type 1 trials.,80,80,0,Go,Go,0.22,0.2,0.05,space,green,vertical,space,11.971945600002073,None,space,1,0.11213860008865595,None,,,,0,0,0,0,0,80,80,80,296.1821377000306,,,,,,,,,,,,,,,,296.1662161999848,296.1821377000306,296.8814753999468,296.8814753999468,297.38120519998483,297.3656276999973,297.3664966999786,297.38120519998483,297.6142309999559,297.7975450999802,297.7975450999802,297.9151981000323,space,1,0.11213860008865595,None,297.91908419993706,298.4303304000059,299.4294140000129,299.41337439999916,,,,,,,,,,,,,,,,,007,001,2025-04-30_18h57.58.825,Cued GoNogo Task,2024.2.4,60.168507931590085,2025-04-30 18h58.06.195581 +0200,
block/CondBlock1.xlsx,You are about to start a block of type 1 trials.,81,81,0,Go,Go,0.5,0.2,0.05,space,green,vertical,space,11.971945600002073,None,space,1,0.359307499951683,None,,,,0,0,0,0,0,81,81,81,299.4294140000129,,,,,,,,,,,,,,,,299.4135887000011,299.4294140000129,300.1288098000223,300.1288098000223,300.6283263999503,300.61259879998397,300.6133048000047,300.6283263999503,301.12790329998825,301.3277333000442,301.3277333000442,301.69557470001746,space,1,0.359307499951683,None,301.69974439998623,302.2103491999442,303.20934489998035,303.19332429999486,,,,,,,,,,,,,,,,,007,001,2025-04-30_18h57.58.825,Cued GoNogo Task,2024.2.4,60.168507931590085,2025-04-30 18h58.06.195581 +0200,
block/CondBlock1.xlsx,You are about to start a block of type 1 trials.,82,82,0,Go,Go,0.43,0.05,0.2,space,green,horizontal,space,11.971945600002073,None,space,1,0.10936809994746,None,,,,0,0,0,0,0,82,82,82,303.20934489998035,,,,,,,,,,,,,,,,303.193506599986,303.20934489998035,303.90911939996295,303.90911939996295,304.4086959999986,304.39276790001895,304.39342820004094,304.4086959999986,304.84159229998477,305.02489759994205,305.02489759994205,305.1427726999391,space,1,0.10936809994746,None,305.1496918000048,305.6578756000381,306.656874599983,306.64120830001775,,,,,,,,,,,,,,,,,007,001,2025-04-30_18h57.58.825,Cued GoNogo Task,2024.2.4,60.168507931590085,2025-04-30 18h58.06.195581 +0200,
block/CondBlock1.xlsx,You are about to start a block of type 1 trials.,83,83,0,Go,Go,0.25,0.2,0.05,space,green,vertical,space,11.971945600002073,None,space,1,0.1174239000538364,None,,,,0,0,0,0,0,83,83,83,306.656874599983,,,,,,,,,,,,,,,,306.6416537000332,306.656874599983,307.3561997000361,307.3561997000361,307.8558718999848,307.8396986000007,307.8400826000143,307.8558718999848,308.10552169999573,308.3054755999474,308.3054755999474,308.4399043000303,space,1,0.1174239000538364,None,308.4437513999874,308.95501719997264,309.9540013000369,309.93828120001126,,,,,,,,,,,,,,,,,007,001,2025-04-30_18h57.58.825,Cued GoNogo Task,2024.2.4,60.168507931590085,2025-04-30 18h58.06.195581 +0200,
block/CondBlock1.xlsx,You are about to start a block of type 1 trials.,84,84,0,NoGo,NoGo,0.14,0.2,0.05,none,green,vertical,space,11.971945600002073,None,None,1,,,,,,0,0,0,0,0,84,84,84,309.9540013000369,,,,,,,,,,,,,,,,309.9385979999788,309.9540013000369,310.6536535000196,310.6536535000196,311.1529504000209,311.13735670002643,311.1379929999821,311.1529504000209,311.30311350000557,311.4862270000158,311.4862270000158,311.9702198000159,None,1,,,311.9726408999413,312.4852632000111,313.4844989000121,313.46841039997526,311.98587680002674,311.98587680002674,,,,,,,,,,,,,,,007,001,2025-04-30_18h57.58.825,Cued GoNogo Task,2024.2.4,60.168507931590085,2025-04-30 18h58.06.195581 +0200,
block/CondBlock1.xlsx,You are about to start a block of type 1 trials.,85,85,0,Go,Go,0.2,0.05,0.2,space,blue,horizontal,space,11.971945600002073,None,space,1,0.14764149999246,None,,,,0,0,0,0,0,85,85,85,313.4844989000121,,,,,,,,,,,,,,,,313.4686391999712,313.4844989000121,314.18390850001015,314.18390850001015,314.68356229993515,314.66738490003627,314.66790749994107,314.68356229993515,314.8833464999916,315.0834366999334,315.0834366999334,315.2347839999711,space,1,0.14764149999246,None,315.23891319998074,315.74943690001965,316.74851169995964,316.73282689996995,,,,,,,,,,,,,,,,,007,001,2025-04-30_18h57.58.825,Cued GoNogo Task,2024.2.4,60.168507931590085,2025-04-30 18h58.06.195581 +0200,
block/CondBlock1.xlsx,You are about to start a block of type 1 trials.,86,86,0,Go,Go,0.16,0.2,0.05,space,blue,vertical,space,11.971945600002073,None,space,1,0.17320660001132637,None,,,,0,0,0,0,0,86,86,86,316.74851169995964,,,,,,,,,,,,,,,,316.73314279993065,316.74851169995964,317.44789369998034,317.44789369998034,317.94749549997505,317.9315520999953,317.93221490003634,317.94749549997505,318.1141020000214,318.29718919994775,318.29718919994775,318.481192599982,space,1,0.17320660001132637,None,318.4841733999783,318.9966191999847,319.99602189997677,319.9799290000228,,,,,,,,,,,,,,,,,007,001,2025-04-30_18h57.58.825,Cued GoNogo Task,2024.2.4,60.168507931590085,2025-04-30 18h58.06.195581 +0200,
block/CondBlock1.xlsx,You are about to start a block of type 1 trials.,87,87,0,Go,Go,0.41,0.2,0.05,space,green,vertical,space,11.971945600002073,None,space,1,0.17196639999747276,None,,,,0,0,0,0,0,87,87,87,319.99602189997677,,,,,,,,,,,,,,,,319.980188800022,319.99602189997677,320.6952950999839,320.6952950999839,321.1949440999888,321.17927029996645,321.1799957000185,321.1949440999888,321.6112048999639,321.7944208999397,321.7944208999397,321.978817599942,space,1,0.17196639999747276,None,321.9831014999654,322.49389619997237,323.49304189998657,323.47714219999034,,,,,,,,,,,,,,,,,007,001,2025-04-30_18h57.58.825,Cued GoNogo Task,2024.2.4,60.168507931590085,2025-04-30 18h58.06.195581 +0200,
block/CondBlock1.xlsx,You are about to start a block of type 1 trials.,88,88,0,NoGo,NoGo,0.15,0.2,0.05,none,green,vertical,space,11.971945600002073,None,None,1,,,,,,0,0,0,0,0,88,88,88,323.49304189998657,,,,,,,,,,,,,,,,323.4774240000406,323.49304189998657,324.19258249993436,324.19258249993436,324.6920458000386,324.6760758999735,324.6767141999444,324.6920458000386,324.84193540003616,325.04158159997314,325.04158159997314,325.5252249999903,None,1,,,325.52822740003467,326.04101679997984,327.04020309995394,327.02446009998675,325.5412700000452,325.5412700000452,,,,,,,,,,,,,,,007,001,2025-04-30_18h57.58.825,Cued GoNogo Task,2024.2.4,60.168507931590085,2025-04-30 18h58.06.195581 +0200,
block/CondBlock1.xlsx,You are about to start a block of type 1 trials.,89,89,0,Go,Go,0.24,0.05,0.2,space,blue,horizontal,space,11.971945600002073,None,space,1,0.1501755000790581,None,,,,0,0,0,0,0,89,89,89,327.04020309995394,,,,,,,,,,,,,,,,327.02472580003086,327.04020309995394,327.739542299998,327.739542299998,328.23908970004413,328.2234365999466,328.2240776999388,328.23908970004413,328.4890351999784,328.6719131999416,328.6719131999416,328.82458370004315,space,1,0.1501755000790581,None,328.82895849994384,329.33809590002056,330.33729719999246,330.3215946999844,,,,,,,,,,,,,,,,,007,001,2025-04-30_18h57.58.825,Cued GoNogo Task,2024.2.4,60.168507931590085,2025-04-30 18h58.06.195581 +0200,
block/CondBlock1.xlsx,You are about to start a block of type 1 trials.,90,90,0,Go,Go,0.25,0.2,0.05,space,blue,vertical,space,11.971945600002073,None,space,1,0.15710630000103265,None,,,,0,0,0,0,0,90,90,90,330.33729719999246,,,,,,,,,,,,,,,,330.32196750002913,330.33729719999246,331.03685879998375,331.03685879998375,331.53641069994774,331.52049899997655,331.5212049999973,331.53641069994774,331.7862199000083,331.9859070000239,331.9859070000239,332.1537371999584,space,1,0.15710630000103265,None,332.15814820001833,332.66883610002697,333.66785840003286,333.65186550002545,,,,,,,,,,,,,,,,,007,001,2025-04-30_18h57.58.825,Cued GoNogo Task,2024.2.4,60.168507931590085,2025-04-30 18h58.06.195581 +0200,
block/CondBlock1.xlsx,You are about to start a block of type 1 trials.,91,91,0,Go,Go,0.26,0.05,0.2,space,green,horizontal,space,11.971945600002073,None,space,1,0.2663882999913767,None,,,,0,0,0,0,0,91,91,91,333.66785840003286,,,,,,,,,,,,,,,,333.6521022999659,333.66785840003286,334.3673377999803,334.3673377999803,334.86709419998806,334.851358099957,334.8520212000003,334.86709419998806,335.13335359992925,335.3167395000346,335.3167395000346,335.58548899996094,space,1,0.2663882999913767,None,335.5891812000191,336.09922450000886,337.0986395999789,337.0826824000105,,,,,,,,,,,,,,,,,007,001,2025-04-30_18h57.58.825,Cued GoNogo Task,2024.2.4,60.168507931590085,2025-04-30 18h58.06.195581 +0200,
block/CondBlock1.xlsx,You are about to start a block of type 1 trials.,92,92,0,NoGo,NoGo,0.44,0.2,0.05,none,blue,vertical,space,11.971945600002073,None,space,0,0.2753946000011638,None,,,,0,0,0,0,0,92,92,92,337.0986395999789,,,,,,,,,,,,,,,,337.08318109996617,337.0986395999789,337.7981207999401,337.7981207999401,338.2973714999389,338.28148220002186,338.2820512999315,338.2973714999389,338.7472940000007,338.9302902999334,338.9302902999334,339.21450879995245,space,0,0.2753946000011638,None,339.21877959999256,339.7295184000395,340.7287856999319,340.71303919993807,,,,,,,,,,,,,,,,,007,001,2025-04-30_18h57.58.825,Cued GoNogo Task,2024.2.4,60.168507931590085,2025-04-30 18h58.06.195581 +0200,
block/CondBlock1.xlsx,You are about to start a block of type 1 trials.,93,93,0,Go,Go,0.13,0.2,0.05,space,green,vertical,space,11.971945600002073,None,space,1,0.1624381000874564,None,,,,0,0,0,0,0,93,93,93,340.7287856999319,,,,,,,,,,,,,,,,340.7133190999739,340.7287856999319,341.4281039999332,341.4281039999332,341.92791269999,341.9119581000414,341.9128916999325,341.92791269999,342.0608580999542,342.24430559994653,342.24430559994653,342.41216750000603,space,1,0.1624381000874564,None,342.41643620003015,342.9270988999633,343.92602509993594,343.9102285000263,,,,,,,,,,,,,,,,,007,001,2025-04-30_18h57.58.825,Cued GoNogo Task,2024.2.4,60.168507931590085,2025-04-30 18h58.06.195581 +0200,
block/CondBlock1.xlsx,You are about to start a block of type 1 trials.,94,94,0,Go,Go,0.44,0.05,0.2,space,blue,horizontal,space,11.971945600002073,None,space,1,0.21766159997787327,None,,,,0,0,0,0,0,94,94,94,343.92602509993594,,,,,,,,,,,,,,,,343.91049839998595,343.92602509993594,344.62586969998665,344.62586969998665,345.1252163000172,345.1094041999895,345.11018940003123,345.1252163000172,345.57484240003396,345.7578721999889,345.7578721999889,345.9923209999688,space,1,0.21766159997787327,None,345.9965801000362,346.50727109995205,347.50656679994427,347.4906297000125,,,,,,,,,,,,,,,,,007,001,2025-04-30_18h57.58.825,Cued GoNogo Task,2024.2.4,60.168507931590085,2025-04-30 18h58.06.195581 +0200,
block/CondBlock1.xlsx,You are about to start a block of type 1 trials.,95,95,0,Go,Go,0.15,0.2,0.05,space,green,vertical,space,11.971945600002073,None,space,1,0.1348972999257967,None,,,,0,0,0,0,0,95,95,95,347.50656679994427,,,,,,,,,,,,,,,,347.4909316999838,347.50656679994427,348.20596179994754,348.20596179994754,348.70568519993685,348.6896114000119,348.6903226999566,348.70568519993685,348.85540580004454,349.05524929997046,349.05524929997046,349.2061952999793,space,1,0.1348972999257967,None,349.21018779999577,349.72144530003425,350.72057490004227,350.70470929995645,,,,,,,,,,,,,,,,,007,001,2025-04-30_18h57.58.825,Cued GoNogo Task,2024.2.4,60.168507931590085,2025-04-30 18h58.06.195581 +0200,
block/CondBlock1.xlsx,You are about to start a block of type 1 trials.,96,96,0,Go,Go,0.49,0.2,0.05,space,green,vertical,space,11.971945600002073,None,space,1,0.12450349994469434,None,,,,0,0,0,0,0,96,96,96,350.72057490004227,,,,,,,,,,,,,,,,350.70501749997493,350.72057490004227,351.42004600004293,351.42004600004293,351.9197305999696,351.9039200999541,351.90439609996974,351.9197305999696,352.41908419993706,352.60226199997123,352.60226199997123,352.73673619993497,space,1,0.12450349994469434,None,352.74057060002815,353.2518712999299,354.2510180999525,354.2354061999358,,,,,,,,,,,,,,,,,007,001,2025-04-30_18h57.58.825,Cued GoNogo Task,2024.2.4,60.168507931590085,2025-04-30 18h58.06.195581 +0200,
block/CondBlock1.xlsx,You are about to start a block of type 1 trials.,97,97,0,Go,Go,0.11,0.2,0.05,space,blue,vertical,space,11.971945600002073,None,space,1,0.13629880000371486,None,,,,0,0,0,0,0,97,97,97,354.2510180999525,,,,,,,,,,,,,,,,354.2357286999468,354.2510180999525,354.95035489997827,354.95035489997827,355.44984859996475,355.4340012000175,355.4346239999868,355.44984859996475,355.5666472000303,355.74994240002707,355.74994240002707,355.9005068000406,space,1,0.13629880000371486,None,355.90479529998265,356.41591490001883,357.4151523000328,357.3993207999738,,,,,,,,,,,,,,,,,007,001,2025-04-30_18h57.58.825,Cued GoNogo Task,2024.2.4,60.168507931590085,2025-04-30 18h58.06.195581 +0200,
block/CondBlock1.xlsx,You are about to start a block of type 1 trials.,98,98,0,Go,Go,0.26,0.05,0.2,space,green,horizontal,space,11.971945600002073,None,space,1,0.17367829999420792,None,,,,0,0,0,0,0,98,98,98,357.4151523000328,,,,,,,,,,,,,,,,357.39960649993736,357.4151523000328,358.11448240000755,358.11448240000755,358.614007199998,358.5980070999358,358.59853159997147,358.614007199998,358.88054569996893,359.0638403999619,359.0638403999619,359.2480604000157,space,1,0.17367829999420792,None,359.2520249999361,359.76309250004124,360.76227119995747,360.746359199984,,,,,,,,,,,,,,,,,007,001,2025-04-30_18h57.58.825,Cued GoNogo Task,2024.2.4,60.168507931590085,2025-04-30 18h58.06.195581 +0200,
block/CondBlock1.xlsx,You are about to start a block of type 1 trials.,99,99,0,Go,Go,0.28,0.05,0.2,space,green,horizontal,space,11.971945600002073,None,space,1,0.1235512999119237,None,,,,0,0,0,0,0,99,99,99,360.76227119995747,,,,,,,,,,,,,,,,360.74660870002117,360.76227119995747,361.4616957999533,361.4616957999533,361.96132909995504,361.94521399994846,361.94583600002807,361.96132909995504,362.24440409999806,362.42772829998285,362.42772829998285,362.5618357999483,space,1,0.1235512999119237,None,362.56537199998274,363.07702970004175,364.0784187000245,364.06056559993885,,,,,,,,,,,,,,,,,007,001,2025-04-30_18h57.58.825,Cued GoNogo Task,2024.2.4,60.168507931590085,2025-04-30 18h58.06.195581 +0200,
block/CondBlock1.xlsx,You are about to start a block of type 1 trials.,0,0,0,,,,,,,,,space,11.971945600002073,None,,,,,space,0.4241006000665948,None,0,0,0,0,,,,,,,,,,,,,,,,,,,,,,,,,,,,,,,,,,,,,,,,,,,364.0761714000255,364.0784187000245,364.0784187000245,364.51022759999614,space,0.4241006000665948,None,,,,,,,,007,001,2025-04-30_18h57.58.825,Cued GoNogo Task,2024.2.4,60.168507931590085,2025-04-30 18h58.06.195581 +0200,
block/CondBlock2.xlsx,You are about to start a block of type 2 trials.,0,0,0,Go,Go,0.18,0.05,0.2,space,green,horizontal,space,272.3934773999499,None,space,1,0.13835840008687228,None,,,,0,1,1,1,0,0,0,0,637.0617249000352,,,,,,,,,364.51352369994856,364.52579490002245,364.52579490002245,636.9361568000168,space,272.3934773999499,None,636.9719208999304,637.0617249000352,637.6513385999715,637.7679657000117,638.1507915999973,638.135450599948,638.1366262999363,638.1507915999973,638.3340132000158,638.5172658000374,638.5172658000374,638.6686373000266,space,1,0.13835840008687228,None,638.6735732000088,639.1833763000323,640.1827898999909,640.1668665999314,,,,,,,,,,,,,,,,,007,001,2025-04-30_18h57.58.825,Cued GoNogo Task,2024.2.4,60.168507931590085,2025-04-30 18h58.06.195581 +0200,
block/CondBlock2.xlsx,You are about to start a block of type 2 trials.,1,1,0,Go,Go,0.2,0.2,0.05,space,green,vertical,space,272.3934773999499,None,space,1,0.3126205999869853,None,,,,0,1,1,1,0,1,1,1,640.1827898999909,,,,,,,,,,,,,,,,640.1672331000445,640.1827898999909,640.8819030999439,640.8819030999439,641.3815099999774,641.3653101000236,641.3658396999817,641.3815099999774,641.5812280999962,641.7811380999628,641.7811380999628,642.0983959999867,space,1,0.3126205999869853,None,642.1012574000051,642.6138306999346,643.6128911999986,643.5969824999338,,,,,,,,,,,,,,,,,007,001,2025-04-30_18h57.58.825,Cued GoNogo Task,2024.2.4,60.168507931590085,2025-04-30 18h58.06.195581 +0200,
block/CondBlock2.xlsx,You are about to start a block of type 2 trials.,2,2,0,Go,Go,0.22,0.05,0.2,space,blue,horizontal,space,272.3934773999499,None,space,1,0.12262140004895627,None,,,,0,1,1,1,0,2,2,2,643.6128911999986,,,,,,,,,,,,,,,,643.5972425999353,643.6128911999986,644.312316800002,644.312316800002,644.8119429999497,644.7958112999331,644.7962983000325,644.8119429999497,645.0451220000396,645.2283256000374,645.2283256000374,645.362659699982,space,1,0.12262140004895627,None,645.3659730999498,645.8776953000342,646.8768013999797,646.8607300999574,,,,,,,,,,,,,,,,,007,001,2025-04-30_18h57.58.825,Cued GoNogo Task,2024.2.4,60.168507931590085,2025-04-30 18h58.06.195581 +0200,
block/CondBlock2.xlsx,You are about to start a block of type 2 trials.,3,3,0,Go,Go,0.14,0.05,0.2,space,green,horizontal,space,272.3934773999499,None,space,1,0.15077930002007633,None,,,,0,1,1,1,0,3,3,3,646.8768013999797,,,,,,,,,,,,,,,,646.8609440999571,646.8768013999797,647.5762016000226,647.5762016000226,648.0760383999441,648.0601380999433,648.0607437000144,648.0760383999441,648.2258005000185,648.4089974999661,648.4089974999661,648.5764218999539,space,1,0.15077930002007633,None,648.5802782999817,649.0918844999978,650.0910211999435,650.0752122999402,,,,,,,,,,,,,,,,,007,001,2025-04-30_18h57.58.825,Cued GoNogo Task,2024.2.4,60.168507931590085,2025-04-30 18h58.06.195581 +0200,
block/CondBlock2.xlsx,You are about to start a block of type 2 trials.,4,4,0,Go,Go,0.26,0.05,0.2,space,blue,horizontal,space,272.3934773999499,None,space,1,0.17980699997860938,None,,,,0,1,1,1,0,4,4,4,650.0910211999435,,,,,,,,,,,,,,,,650.0754788999911,650.0910211999435,650.7904051999794,650.7904051999794,651.2899139999645,651.2742627999978,651.2750362999504,651.2899139999645,651.5566236999584,651.7396257999353,651.7396257999353,651.9236855999334,space,1,0.17980699997860938,None,651.9265971999848,652.4391209000023,653.4380997000262,653.4223699000431,,,,,,,,,,,,,,,,,007,001,2025-04-30_18h57.58.825,Cued GoNogo Task,2024.2.4,60.168507931590085,2025-04-30 18h58.06.195581 +0200,
block/CondBlock2.xlsx,You are about to start a block of type 2 trials.,5,5,0,Go,Go,0.1,0.05,0.2,space,blue,horizontal,space,272.3934773999499,None,space,1,0.10886409995146096,None,,,,0,1,1,1,0,5,5,5,653.4380997000262,,,,,,,,,,,,,,,,653.422638899996,653.4380997000262,654.1378086999757,654.1378086999757,654.6372902999865,654.6213362000417,654.6219103999902,654.6372902999865,654.7371700999793,654.9368977999547,654.9368977999547,655.0545819000108,space,1,0.10886409995146096,None,655.0581363999518,655.5697843999369,656.5688677999424,656.5529690999538,,,,,,,,,,,,,,,,,007,001,2025-04-30_18h57.58.825,Cued GoNogo Task,2024.2.4,60.168507931590085,2025-04-30 18h58.06.195581 +0200,
block/CondBlock2.xlsx,You are about to start a block of type 2 trials.,6,6,0,NoGo,NoGo,0.3,0.2,0.05,none,green,vertical,space,272.3934773999499,None,None,1,,,,,,0,1,1,1,0,6,6,6,656.5688677999424,,,,,,,,,,,,,,,,656.5531985999551,656.5688677999424,657.2684071999975,657.2684071999975,657.7682757000439,657.751909899991,657.7524042000296,657.7682757000439,658.0679669999518,658.267428799998,658.267428799998,658.7511009000009,None,1,,,658.7540192999877,659.2667942999396,660.2659596999874,660.2499060999835,658.7671882000286,658.7671882000286,,,,,,,,,,,,,,,007,001,2025-04-30_18h57.58.825,Cued GoNogo Task,2024.2.4,60.168507931590085,2025-04-30 18h58.06.195581 +0200,
block/CondBlock2.xlsx,You are about to start a block of type 2 trials.,7,7,0,NoGo,NoGo,0.14,0.05,0.2,none,blue,horizontal,space,272.3934773999499,None,None,1,,,,,,0,1,1,1,0,7,7,7,660.2659596999874,,,,,,,,,,,,,,,,660.2500983999344,660.2659596999874,660.9656046000309,660.9656046000309,661.4648918999592,661.4488005000167,661.4492493999423,661.4648918999592,661.614819200011,661.7980488999747,661.7980488999747,662.2818435999798,None,1,,,662.28225379996,662.7973760999739,663.7964223999297,663.7804906000383,662.2976033999585,662.2976033999585,,,,,,,,,,,,,,,007,001,2025-04-30_18h57.58.825,Cued GoNogo Task,2024.2.4,60.168507931590085,2025-04-30 18h58.06.195581 +0200,
block/CondBlock2.xlsx,You are about to start a block of type 2 trials.,8,8,0,Go,Go,0.13,0.2,0.05,space,blue,vertical,space,272.3934773999499,None,space,1,0.11859259998891503,None,,,,0,1,1,1,0,8,8,8,663.7964223999297,,,,,,,,,,,,,,,,663.7807847999502,663.7964223999297,664.4958244999871,664.4958244999871,664.9954457000131,664.9793968999293,664.9799973999616,664.9954457000131,665.1286244000075,665.3117773999693,665.3117773999693,665.4460317000048,space,1,0.11859259998891503,None,665.4485297999345,665.9612263999879,666.9603293000255,666.9442973999539,,,,,,,,,,,,,,,,,007,001,2025-04-30_18h57.58.825,Cued GoNogo Task,2024.2.4,60.168507931590085,2025-04-30 18h58.06.195581 +0200,
block/CondBlock2.xlsx,You are about to start a block of type 2 trials.,9,9,0,Go,Go,0.43,0.2,0.05,space,green,vertical,space,272.3934773999499,None,space,1,0.13432479999028146,None,,,,0,1,1,1,0,9,9,9,666.9603293000255,,,,,,,,,,,,,,,,666.9445300999796,666.9603293000255,667.6597987000132,667.6597987000132,668.1593253000174,668.1437369999476,668.1444038000191,668.1593253000174,668.5924096000381,668.775614400045,668.775614400045,668.9266642000293,space,1,0.13432479999028146,None,668.930688799941,669.4419097999344,670.4409378999844,670.4249475999968,,,,,,,,,,,,,,,,,007,001,2025-04-30_18h57.58.825,Cued GoNogo Task,2024.2.4,60.168507931590085,2025-04-30 18h58.06.195581 +0200,
block/CondBlock2.xlsx,You are about to start a block of type 2 trials.,10,10,0,Go,Go,0.14,0.2,0.05,space,green,vertical,space,272.3934773999499,None,space,1,0.09763750003185123,None,,,,0,1,1,1,0,10,10,10,670.4409378999844,,,,,,,,,,,,,,,,670.4252156999428,670.4409378999844,671.140524599934,671.140524599934,671.6400018000277,671.6238760999404,671.6244049000088,671.6400018000277,671.7896648999304,671.9730317000067,671.9730317000067,672.0737664999906,space,1,0.09763750003185123,None,672.0770409000106,672.5891032000072,673.5884893999901,673.5724704000168,,,,,,,,,,,,,,,,,007,001,2025-04-30_18h57.58.825,Cued GoNogo Task,2024.2.4,60.168507931590085,2025-04-30 18h58.06.195581 +0200,
block/CondBlock2.xlsx,You are about to start a block of type 2 trials.,11,11,0,Go,Go,0.27,0.2,0.05,space,green,vertical,space,272.3934773999499,None,space,1,0.10390769992955029,None,,,,0,1,1,1,0,11,11,11,673.5884893999901,,,,,,,,,,,,,,,,673.5727188999299,673.5884893999901,674.287708299933,674.287708299933,674.7873657000018,674.7711323000258,674.7716207000194,674.7873657000018,675.0704338999931,675.2536735000322,675.2536735000322,675.371373699978,space,1,0.10390769992955029,None,675.374903799966,675.88646780001,676.885832299944,676.8698654000182,,,,,,,,,,,,,,,,,007,001,2025-04-30_18h57.58.825,Cued GoNogo Task,2024.2.4,60.168507931590085,2025-04-30 18h58.06.195581 +0200,
block/CondBlock2.xlsx,You are about to start a block of type 2 trials.,12,12,0,Go,Go,0.3,0.05,0.2,space,green,horizontal,space,272.3934773999499,None,space,1,0.1495658999774605,None,,,,0,1,1,1,0,12,12,12,676.885832299944,,,,,,,,,,,,,,,,676.8701329999603,676.885832299944,677.5848579000449,677.5848579000449,678.0846553000156,678.0686782000121,678.0691840000218,678.0846553000156,678.3843510999577,678.5840504999505,678.5840504999505,678.7361782999942,space,1,0.1495658999774605,None,678.7401822999818,679.2502743999939,680.2496603999753,680.2340932999505,,,,,,,,,,,,,,,,,007,001,2025-04-30_18h57.58.825,Cued GoNogo Task,2024.2.4,60.168507931590085,2025-04-30 18h58.06.195581 +0200,
block/CondBlock2.xlsx,You are about to start a block of type 2 trials.,13,13,0,Go,Go,0.18,0.2,0.05,space,blue,vertical,space,272.3934773999499,None,space,1,0.11884579993784428,None,,,,0,1,1,1,0,13,13,13,680.2496603999753,,,,,,,,,,,,,,,,680.2343918000115,680.2496603999753,680.9489140999503,680.9489140999503,681.448580199969,681.4323077000445,681.4328193999827,681.448580199969,681.6317647999385,681.831612000009,681.831612000009,681.9654813000234,space,1,0.11884579993784428,None,681.9683239000151,682.4809462999692,683.4800255999435,683.4646727000363,,,,,,,,,,,,,,,,,007,001,2025-04-30_18h57.58.825,Cued GoNogo Task,2024.2.4,60.168507931590085,2025-04-30 18h58.06.195581 +0200,
block/CondBlock2.xlsx,You are about to start a block of type 2 trials.,14,14,0,Go,Go,0.13,0.2,0.05,space,green,vertical,space,272.3934773999499,None,space,1,0.14651120000053197,None,,,,0,1,1,1,0,14,14,14,683.4800255999435,,,,,,,,,,,,,,,,683.4648959999904,683.4800255999435,684.1795402000425,684.1795402000425,684.6791410000296,684.6630765999435,684.6635352999438,684.6791410000296,684.8122972999699,684.9954791000346,684.9954791000346,685.1468337000115,space,1,0.14651120000053197,None,685.1500962999417,685.6617332999595,686.6610256000422,686.645482199965,,,,,,,,,,,,,,,,,007,001,2025-04-30_18h57.58.825,Cued GoNogo Task,2024.2.4,60.168507931590085,2025-04-30 18h58.06.195581 +0200,
block/CondBlock2.xlsx,You are about to start a block of type 2 trials.,15,15,0,Go,Go,0.18,0.2,0.05,space,blue,vertical,space,272.3934773999499,None,space,1,0.09272380010224879,None,,,,0,1,1,1,0,15,15,15,686.6610256000422,,,,,,,,,,,,,,,,686.645929899998,686.6610256000422,687.3603330999613,687.3603330999613,687.8598137999652,687.8436737000011,687.8443838999374,687.8598137999652,688.042894299957,688.2261552000418,688.2261552000418,688.3273478000192,space,1,0.09272380010224879,None,688.3307126000291,688.8425907000201,689.8417879999615,689.8256768999854,,,,,,,,,,,,,,,,,007,001,2025-04-30_18h57.58.825,Cued GoNogo Task,2024.2.4,60.168507931590085,2025-04-30 18h58.06.195581 +0200,
block/CondBlock2.xlsx,You are about to start a block of type 2 trials.,16,16,0,Go,Go,0.24,0.2,0.05,space,green,vertical,space,272.3934773999499,None,space,1,0.19702600000891834,None,,,,0,1,1,1,0,16,16,16,689.8417879999615,,,,,,,,,,,,,,,,689.8260670999298,689.8417879999615,690.5411322000436,690.5411322000436,691.0406113000354,691.0247651999816,691.0254769999301,691.0406113000354,691.290443200036,691.4736292000161,691.4736292000161,691.6746924000327,space,1,0.19702600000891834,None,691.6787285000319,692.1898402000079,693.1888183000265,693.1730925999582,,,,,,,,,,,,,,,,,007,001,2025-04-30_18h57.58.825,Cued GoNogo Task,2024.2.4,60.168507931590085,2025-04-30 18h58.06.195581 +0200,
block/CondBlock2.xlsx,You are about to start a block of type 2 trials.,17,17,0,Go,Go,0.26,0.2,0.05,space,blue,vertical,space,272.3934773999499,None,space,1,0.12958299997262657,None,,,,0,1,1,1,0,17,17,17,693.1888183000265,,,,,,,,,,,,,,,,693.1733333999291,693.1888183000265,693.8883137999801,693.8883137999801,694.3878732000012,694.3717291000066,694.3727492999751,694.3878732000012,694.6543801999651,694.837359600002,694.837359600002,694.9718884000322,space,1,0.12958299997262657,None,694.9763953000074,695.4868879000423,696.4860541999806,696.4702535000397,,,,,,,,,,,,,,,,,007,001,2025-04-30_18h57.58.825,Cued GoNogo Task,2024.2.4,60.168507931590085,2025-04-30 18h58.06.195581 +0200,
block/CondBlock2.xlsx,You are about to start a block of type 2 trials.,18,18,0,Go,Go,0.1,0.05,0.2,space,blue,horizontal,space,272.3934773999499,None,space,1,0.16647930000908673,None,,,,0,1,1,1,0,18,18,18,696.4860541999806,,,,,,,,,,,,,,,,696.4705649999669,696.4860541999806,697.1854882999323,697.1854882999323,697.6850297999335,697.6691586000379,697.6697802999988,697.6850297999335,697.7856787999626,697.9850050000241,697.9850050000241,698.1536365000065,space,1,0.16647930000908673,None,698.1566789000062,698.6676702999976,699.6666635000147,699.6511469000252,,,,,,,,,,,,,,,,,007,001,2025-04-30_18h57.58.825,Cued GoNogo Task,2024.2.4,60.168507931590085,2025-04-30 18h58.06.195581 +0200,
block/CondBlock2.xlsx,You are about to start a block of type 2 trials.,19,19,0,Go,Go,0.46,0.2,0.05,space,blue,vertical,space,272.3934773999499,None,space,1,0.12301660003140569,None,,,,0,1,1,1,0,19,19,19,699.6666635000147,,,,,,,,,,,,,,,,699.6514445999637,699.6666635000147,700.3662579000229,700.3662579000229,700.8658864999888,700.8497494999319,700.8502698999364,700.8658864999888,701.3321535999421,701.5154821999604,701.5154821999604,701.6494788000127,space,1,0.12301660003140569,None,701.6529249999439,702.1646974999458,703.1639958999585,703.1480724000139,,,,,,,,,,,,,,,,,007,001,2025-04-30_18h57.58.825,Cued GoNogo Task,2024.2.4,60.168507931590085,2025-04-30 18h58.06.195581 +0200,
block/CondBlock2.xlsx,You are about to start a block of type 2 trials.,20,20,0,Go,Go,0.3,0.05,0.2,space,blue,horizontal,space,272.3934773999499,None,space,1,0.11163200007285923,None,,,,0,1,1,1,0,20,20,20,703.1639958999585,,,,,,,,,,,,,,,,703.1482974999817,703.1639958999585,703.8634253999917,703.8634253999917,704.3630388999591,704.3468673999887,704.3473871999886,704.3630388999591,704.6627025000053,704.8625831999816,704.8625831999816,704.9802366000367,space,1,0.11163200007285923,None,704.9840104000177,705.4955335999839,706.4944552000379,706.4785082000308,,,,,,,,,,,,,,,,,007,001,2025-04-30_18h57.58.825,Cued GoNogo Task,2024.2.4,60.168507931590085,2025-04-30 18h58.06.195581 +0200,
block/CondBlock2.xlsx,You are about to start a block of type 2 trials.,21,21,0,Go,Go,0.23,0.05,0.2,space,green,horizontal,space,272.3934773999499,None,space,1,0.18379799998365343,None,,,,0,1,1,1,0,21,21,21,706.4944552000379,,,,,,,,,,,,,,,,706.4787194000091,706.4944552000379,707.1941867000423,707.1941867000423,707.6935081999982,707.6773837000364,707.6779588999925,707.6935081999982,707.9268198999343,708.1100610999856,708.1100610999856,708.3108336000005,space,1,0.18379799998365343,None,708.3166841999628,708.8259968999773,709.8252284999471,709.8093626999762,,,,,,,,,,,,,,,,,007,001,2025-04-30_18h57.58.825,Cued GoNogo Task,2024.2.4,60.168507931590085,2025-04-30 18h58.06.195581 +0200,
block/CondBlock2.xlsx,You are about to start a block of type 2 trials.,22,22,0,Go,Go,0.19,0.2,0.05,space,green,vertical,space,272.3934773999499,None,space,1,0.13526390003971756,None,,,,0,1,1,1,0,22,22,22,709.8252284999471,,,,,,,,,,,,,,,,709.8096187999472,709.8252284999471,710.5246449999977,710.5246449999977,711.0242711999454,711.008102199994,711.0087778000161,711.0242711999454,711.2240950999549,711.4072935000295,711.4072935000295,711.5582830000203,space,1,0.13526390003971756,None,711.5627370999428,712.0733000999317,713.0726071000099,713.056688599987,,,,,,,,,,,,,,,,,007,001,2025-04-30_18h57.58.825,Cued GoNogo Task,2024.2.4,60.168507931590085,2025-04-30 18h58.06.195581 +0200,
block/CondBlock2.xlsx,You are about to start a block of type 2 trials.,23,23,0,NoGo,NoGo,0.41,0.2,0.05,none,blue,vertical,space,272.3934773999499,None,None,1,,,,,,0,1,1,1,0,23,23,23,713.0726071000099,,,,,,,,,,,,,,,,713.056933099986,713.0726071000099,713.7724305000156,713.7724305000156,714.2714204000076,714.2554995999672,714.255941899959,714.2714204000076,714.6879843999632,714.871026400011,714.871026400011,715.3547914000228,None,1,,,715.3571103999857,715.8703347999835,716.8692381000146,716.8535188999958,715.370573299937,715.370573299937,,,,,,,,,,,,,,,007,001,2025-04-30_18h57.58.825,Cued GoNogo Task,2024.2.4,60.168507931590085,2025-04-30 18h58.06.195581 +0200,
block/CondBlock2.xlsx,You are about to start a block of type 2 trials.,24,24,0,Go,Go,0.17,0.2,0.05,space,blue,vertical,space,272.3934773999499,None,space,1,0.1565405000001192,None,,,,0,1,1,1,0,24,24,24,716.8692381000146,,,,,,,,,,,,,,,,716.8537622999866,716.8692381000146,717.5688293999992,717.5688293999992,718.068388500018,718.0525030000135,718.0531511999434,718.068388500018,718.2514768999536,718.4347654000157,718.4347654000157,718.6023956999416,space,1,0.1565405000001192,None,718.6052976000356,719.1174986000406,720.1169399999781,720.1007427000441,,,,,,,,,,,,,,,,,007,001,2025-04-30_18h57.58.825,Cued GoNogo Task,2024.2.4,60.168507931590085,2025-04-30 18h58.06.195581 +0200,
block/CondBlock2.xlsx,You are about to start a block of type 2 trials.,25,25,0,Go,Go,0.27,0.05,0.2,space,blue,horizontal,space,272.3934773999499,None,space,1,0.12071099993772805,None,,,,0,1,1,1,0,25,25,25,720.1169399999781,,,,,,,,,,,,,,,,720.1009883999359,720.1169399999781,720.8167242000345,720.8167242000345,721.3156505000079,721.2999532000395,721.3005570999812,721.3156505000079,721.5987143999664,721.782283199951,721.782283199951,721.9161334999371,space,1,0.12071099993772805,None,721.9203721999656,722.4314383999445,723.4305947000394,723.4149273999501,,,,,,,,,,,,,,,,,007,001,2025-04-30_18h57.58.825,Cued GoNogo Task,2024.2.4,60.168507931590085,2025-04-30 18h58.06.195581 +0200,
block/CondBlock2.xlsx,You are about to start a block of type 2 trials.,26,26,0,Go,Go,0.26,0.05,0.2,space,green,horizontal,space,272.3934773999499,None,space,1,0.12737229990307242,None,,,,0,1,1,1,0,26,26,26,723.4305947000394,,,,,,,,,,,,,,,,723.4153758999892,723.4305947000394,724.1299510999816,724.1299510999816,724.6294975000201,724.6135582999559,724.6140613999451,724.6294975000201,724.896162900026,725.0793490000069,725.0793490000069,725.2133664999856,space,1,0.12737229990307242,None,725.2170361999888,725.7286898000166,726.7280255999649,726.711841100012,,,,,,,,,,,,,,,,,007,001,2025-04-30_18h57.58.825,Cued GoNogo Task,2024.2.4,60.168507931590085,2025-04-30 18h58.06.195581 +0200,
block/CondBlock2.xlsx,You are about to start a block of type 2 trials.,27,27,0,Go,Go,0.22,0.2,0.05,space,green,vertical,space,272.3934773999499,None,space,1,0.1426727999933064,None,,,,0,1,1,1,0,27,27,27,726.7280255999649,,,,,,,,,,,,,,,,726.7120888000354,726.7280255999649,727.4273913999787,727.4273913999787,727.9267829000019,727.9111274000024,727.9116607999895,727.9267829000019,728.1601502000121,728.3432932000142,728.3432932000142,728.4941598000005,space,1,0.1426727999933064,None,728.4971759000327,729.0093197999522,730.0086263000267,729.9927887000376,,,,,,,,,,,,,,,,,007,001,2025-04-30_18h57.58.825,Cued GoNogo Task,2024.2.4,60.168507931590085,2025-04-30 18h58.06.195581 +0200,
block/CondBlock2.xlsx,You are about to start a block of type 2 trials.,28,28,0,Go,Go,0.19,0.05,0.2,space,blue,horizontal,space,272.3934773999499,None,space,1,0.14391410001553595,None,,,,0,1,1,1,0,28,28,28,730.0086263000267,,,,,,,,,,,,,,,,729.9931005999679,730.0086263000267,730.7080251999432,730.7080251999432,731.2076998000266,731.1921800000127,731.1932082000421,731.2076998000266,731.4073479999788,731.5905973999761,731.5905973999761,731.7417551999679,space,1,0.14391410001553595,None,731.7453606999479,732.2567940000445,733.2559714999516,733.2398462999845,,,,,,,,,,,,,,,,,007,001,2025-04-30_18h57.58.825,Cued GoNogo Task,2024.2.4,60.168507931590085,2025-04-30 18h58.06.195581 +0200,
block/CondBlock2.xlsx,You are about to start a block of type 2 trials.,29,29,0,Go,Go,0.18,0.05,0.2,space,blue,horizontal,space,272.3934773999499,None,space,1,0.15283359994646162,None,,,,0,1,1,1,0,29,29,29,733.2559714999516,,,,,,,,,,,,,,,,733.2401285000378,733.2559714999516,733.9553653999465,733.9553653999465,734.4549424999859,734.4385799999582,734.4390628000256,734.4549424999859,734.6381262999494,734.8213243000209,734.8213243000209,734.9889871999621,space,1,0.15283359994646162,None,734.9934468000429,735.5041517999489,736.5031996000325,736.4871185999364,,,,,,,,,,,,,,,,,007,001,2025-04-30_18h57.58.825,Cued GoNogo Task,2024.2.4,60.168507931590085,2025-04-30 18h58.06.195581 +0200,
block/CondBlock2.xlsx,You are about to start a block of type 2 trials.,30,30,0,NoGo,NoGo,0.23,0.2,0.05,none,blue,vertical,space,272.3934773999499,None,None,1,,,,,,0,1,1,1,0,30,30,30,736.5031996000325,,,,,,,,,,,,,,,,736.4873096999945,736.5031996000325,737.2027584000025,737.2027584000025,737.7022701000096,737.6860482000047,737.6865914999507,737.7022701000096,737.9354464999633,738.1185923999874,738.1185923999874,738.6022354000015,None,1,,,738.6046241000295,739.1178649000358,740.116867100005,740.1009879999328,738.6180050999392,738.6180050999392,,,,,,,,,,,,,,,007,001,2025-04-30_18h57.58.825,Cued GoNogo Task,2024.2.4,60.168507931590085,2025-04-30 18h58.06.195581 +0200,
block/CondBlock2.xlsx,You are about to start a block of type 2 trials.,31,31,0,Go,Go,0.43,0.2,0.05,space,green,vertical,space,272.3934773999499,None,space,1,0.12300639995373785,None,,,,0,1,1,1,0,31,31,31,740.116867100005,,,,,,,,,,,,,,,,740.1012437000172,740.116867100005,740.8163796999725,740.8163796999725,741.3159085999941,741.2999525000341,741.3004738999298,741.3159085999941,741.7489525999408,741.932017599931,741.932017599931,742.0662057000445,space,1,0.12300639995373785,None,742.0695929999929,742.5815154999727,743.5807853000006,743.5647760999855,,,,,,,,,,,,,,,,,007,001,2025-04-30_18h57.58.825,Cued GoNogo Task,2024.2.4,60.168507931590085,2025-04-30 18h58.06.195581 +0200,
block/CondBlock2.xlsx,You are about to start a block of type 2 trials.,32,32,0,Go,Go,0.13,0.05,0.2,space,blue,horizontal,space,272.3934773999499,None,space,1,0.1677491000154987,None,,,,0,1,1,1,0,32,32,32,743.5807853000006,,,,,,,,,,,,,,,,743.5649746999843,743.5807853000006,744.280233199941,744.280233199941,744.7797202999936,744.7635055000428,744.7639939000364,744.7797202999936,744.9129708999535,745.0960503999377,745.0960503999377,745.2805471000029,space,1,0.1677491000154987,None,745.2843749999302,745.7956011999631,746.794712599949,746.7787206999492,,,,,,,,,,,,,,,,,007,001,2025-04-30_18h57.58.825,Cued GoNogo Task,2024.2.4,60.168507931590085,2025-04-30 18h58.06.195581 +0200,
block/CondBlock2.xlsx,You are about to start a block of type 2 trials.,33,33,0,Go,Go,0.45,0.05,0.2,space,green,horizontal,space,272.3934773999499,None,space,1,0.09130439988803118,None,,,,0,1,1,1,0,33,33,33,746.794712599949,,,,,,,,,,,,,,,,746.7789186999435,746.794712599949,747.4941084999591,747.4941084999591,747.9938985999906,747.9782591999974,747.9792142999358,747.9938985999906,748.4433243999956,748.6431493000127,748.6431493000127,748.7441974999383,space,1,0.09130439988803118,None,748.7475187999662,749.2594048000174,750.2586488999659,750.2428682999453,,,,,,,,,,,,,,,,,007,001,2025-04-30_18h57.58.825,Cued GoNogo Task,2024.2.4,60.168507931590085,2025-04-30 18h58.06.195581 +0200,
block/CondBlock2.xlsx,You are about to start a block of type 2 trials.,34,34,0,Go,Go,0.14,0.2,0.05,space,blue,vertical,space,272.3934773999499,None,space,1,0.12864869995974004,None,,,,0,1,1,1,0,34,34,34,750.2586488999659,,,,,,,,,,,,,,,,750.2431920999661,750.2586488999659,750.9580936999992,750.9580936999992,751.458138099988,751.4418509999523,751.442590199993,751.458138099988,751.6075013999362,751.790603899979,751.790603899979,751.9248038999503,space,1,0.12864869995974004,None,751.9280641999794,752.4401461000089,753.4393218000187,753.4237156999297,,,,,,,,,,,,,,,,,007,001,2025-04-30_18h57.58.825,Cued GoNogo Task,2024.2.4,60.168507931590085,2025-04-30 18h58.06.195581 +0200,
block/CondBlock2.xlsx,You are about to start a block of type 2 trials.,35,35,0,Go,Go,0.11,0.2,0.05,space,blue,vertical,space,272.3934773999499,None,space,1,0.15615950000938028,None,,,,0,1,1,1,0,35,35,35,753.4393218000187,,,,,,,,,,,,,,,,753.4241231000051,753.4393218000187,754.1387341000373,754.1387341000373,754.6385176000185,754.622337799985,754.6229104000377,754.6385176000185,754.7549437000416,754.9379801999312,754.9379801999312,755.1059303999646,space,1,0.15615950000938028,None,755.1102282999782,755.6211518000346,,756.6201597999316,,,,,,,,,,,,,,,,,007,001,2025-04-30_18h57.58.825,Cued GoNogo Task,2024.2.4,60.168507931590085,2025-04-30 18h58.06.195581 +0200,
block/CondBlock2.xlsx,You are about to start a block of type 2 trials.,36,36,0,Go,Go,0.15,0.05,0.2,space,green,horizontal,space,272.3934773999499,None,space,1,0.14915959991049021,None,,,,0,1,1,1,0,36,36,36,756.6366453999653,,,,,,,,,,,,,,,,756.6203979999991,756.6366453999653,757.3194359999616,757.3360261999769,757.8189867000328,757.8029606000055,757.8035175999394,757.8189867000328,757.9688750000205,758.1687609000364,758.1687609000364,758.3204815000063,space,1,0.14915959991049021,None,758.3247378999367,758.8347882999806,759.8341053000186,759.8180228000274,,,,,,,,,,,,,,,,,007,001,2025-04-30_18h57.58.825,Cued GoNogo Task,2024.2.4,60.168507931590085,2025-04-30 18h58.06.195581 +0200,
block/CondBlock2.xlsx,You are about to start a block of type 2 trials.,37,37,0,Go,Go,0.15,0.2,0.05,space,green,vertical,space,272.3934773999499,None,space,1,0.10379349999129772,None,,,,0,1,1,1,0,37,37,37,759.8341053000186,,,,,,,,,,,,,,,,759.8182451999746,759.8341053000186,760.5335286000045,760.5335286000045,761.0330706000095,761.0169855999993,761.0179158999817,761.0330706000095,761.1829400999704,761.3828827999532,761.3828827999532,761.500264500035,space,1,0.10379349999129772,None,761.5028083999641,762.0156461000443,763.0147566000232,762.998733800021,,,,,,,,,,,,,,,,,007,001,2025-04-30_18h57.58.825,Cued GoNogo Task,2024.2.4,60.168507931590085,2025-04-30 18h58.06.195581 +0200,
block/CondBlock2.xlsx,You are about to start a block of type 2 trials.,38,38,0,NoGo,NoGo,0.14,0.2,0.05,none,green,vertical,space,272.3934773999499,None,space,0,0.17187590000685304,None,,,,0,1,1,1,0,38,38,38,763.0147566000232,,,,,,,,,,,,,,,,762.9989788000239,763.0147566000232,763.7141598999733,763.7141598999733,764.2138193999417,764.197876399965,764.1984727999661,764.2138193999417,764.3636124000186,764.5467429000419,764.5467429000419,764.730986700044,space,0,0.17187590000685304,None,764.7358483000426,765.2463201000355,766.2455445999512,766.2292007999495,,,,,,,,,,,,,,,,,007,001,2025-04-30_18h57.58.825,Cued GoNogo Task,2024.2.4,60.168507931590085,2025-04-30 18h58.06.195581 +0200,
block/CondBlock2.xlsx,You are about to start a block of type 2 trials.,39,39,0,Go,Go,0.46,0.2,0.05,space,green,vertical,space,272.3934773999499,None,space,1,0.13612090004608035,None,,,,0,1,1,1,0,39,39,39,766.2455445999512,,,,,,,,,,,,,,,,766.2294126999332,766.2455445999512,766.9447894999757,766.9447894999757,767.4445367000299,767.4284505000105,767.4290346000344,767.4445367000299,767.9106228000019,768.0937571999384,768.0937571999384,768.2449270000216,space,1,0.13612090004608035,None,768.2488719000248,768.7602566999849,769.7592033999972,769.7434296000283,,,,,,,,,,,,,,,,,007,001,2025-04-30_18h57.58.825,Cued GoNogo Task,2024.2.4,60.168507931590085,2025-04-30 18h58.06.195581 +0200,
block/CondBlock2.xlsx,You are about to start a block of type 2 trials.,40,40,0,Go,Go,0.5,0.05,0.2,space,blue,horizontal,space,272.3934773999499,None,space,1,0.117359499912709,None,,,,0,1,1,1,0,40,40,40,769.7592033999972,,,,,,,,,,,,,,,,769.7436205999693,769.7592033999972,770.458796299994,770.458796299994,770.9582407999551,770.9426518999971,770.9433892000234,770.9582407999551,771.4580342000118,771.6576159000397,771.6576159000397,771.7919072000077,space,1,0.117359499912709,None,771.7961235999828,772.3073311999906,,773.306390899932,,,,,,,,,,,,,,,,,007,001,2025-04-30_18h57.58.825,Cued GoNogo Task,2024.2.4,60.168507931590085,2025-04-30 18h58.06.195581 +0200,
block/CondBlock2.xlsx,You are about to start a block of type 2 trials.,41,41,0,Go,Go,0.16,0.05,0.2,space,green,horizontal,space,272.3934773999499,None,space,1,0.10355770005844533,None,,,,0,1,1,1,0,41,41,41,773.3229860999854,,,,,,,,,,,,,,,,773.3065987000009,773.3229860999854,774.0057134999661,774.0223300999496,774.505332199973,774.4896288999589,774.4903188999742,774.505332199973,774.671797499992,774.8549530999735,774.8549530999735,774.9727451000363,space,1,0.10355770005844533,None,774.9768629999598,775.4880594999995,,776.4870512000052,,,,,,,,,,,,,,,,,007,001,2025-04-30_18h57.58.825,Cued GoNogo Task,2024.2.4,60.168507931590085,2025-04-30 18h58.06.195581 +0200,
