Block,blockMsg,thisN,thisTrialN,thisRepN,CueType,StimType,CueTime,Stim_Height,Stim_Width,CRESP,Color,Orientation,key_resp_2.keys,key_resp_2.rt,key_resp_2.duration,Key_Resp.keys,Key_Resp.corr,Key_Resp.rt,Key_Resp.duration,key_resp_3.keys,key_resp_3.rt,key_resp_3.duration,Blocks.thisRepN,Blocks.thisTrialN,Blocks.thisN,Blocks.thisIndex,Trials.thisRepN,Trials.thisTrialN,Trials.thisN,Trials.thisIndex,thisRow.t,notes,TaskIntro.started,fixation.started,key_resp.started,TaskIntro.stopped,key_resp.keys,key_resp.rt,key_resp.duration,BlockStart.started,BlockStart_Msg.started,key_resp_2.started,BlockStart.stopped,Blocks.key_resp_2.keys,Blocks.key_resp_2.rt,Blocks.key_resp_2.duration,Fixation.started,FixationPhase.started,Blank.started,FixationPhase.stopped,Blank.stopped,Fixation.stopped,Trial.started,Cue.started,Cue.stopped,GoNogo_Stim.started,Key_Resp.started,Trial.stopped,Trials.Key_Resp.keys,Trials.Key_Resp.corr,Trials.Key_Resp.rt,Trials.Key_Resp.duration,Feedback.started,Feedback_Present.started,Feedback_Present.stopped,Feedback.stopped,GoNogo_Stim.stopped,Key_Resp.stopped,BlockEnd.started,BlockEnd_Msg.started,key_resp_3.started,BlockEnd.stopped,Blocks.key_resp_3.keys,Blocks.key_resp_3.rt,Blocks.key_resp_3.duration,participant,session,date,expName,psychopyVersion,frameRate,expStart,
,,,,,,,,,,,,,,,,,,,,,,,,,,,,,,,,,0.02628540003206581,0.09253479994367808,0.09253479994367808,6.919768000021577,space,6.769514799932949,None,,,,,,,,,,,,,,,,,,,,,,,,,,,,,,,,,,,,,000,002,2025-05-03_15h55.21.560,Cued GoNogo Task,2024.2.4,60.01205041367239,2025-05-03 15h55.36.068443 +0200,
block/CondBlock1.xlsx,You are about to start a block of type 1 trials.,0,0,0,Go,Go,0.13,0.05,0.2,space,blue,horizontal,space,0.8030384000157937,None,space,1,0.29558739997446537,None,,,,0,0,0,0,0,0,0,0,7.817101599997841,,,,,,,,,6.928571099997498,6.931144000031054,6.931144000031054,7.747797599993646,space,0.8030384000157937,None,7.814444900024682,7.817101599997841,8.462799199973233,8.529433600022458,8.96242210001219,8.946502299979329,8.947113399975933,8.96242210001219,9.095637399936095,9.278909899992868,9.278909899992868,9.579732400015928,space,1,0.29558739997446537,None,9.589953599963337,10.094819699996151,11.094092299928889,11.078498299932107,,,,,,,,,,000,002,2025-05-03_15h55.21.560,Cued GoNogo Task,2024.2.4,60.01205041367239,2025-05-03 15h55.36.068443 +0200,
block/CondBlock1.xlsx,You are about to start a block of type 1 trials.,1,1,0,NoGo,NoGo,0.43,0.05,0.2,none,blue,horizontal,space,0.8030384000157937,None,space,0,0.32051180000416934,None,,,,0,0,0,0,0,1,1,1,11.094092299928889,,,,,,,,,,,,,,,,11.078850599937141,11.094092299928889,11.79351550003048,11.79351550003048,12.293027200037614,12.277607799973339,12.278529700008221,12.293027200037614,12.726036099949852,12.909145699930377,12.909145699930377,13.24345029995311,space,0,0.32051180000416934,None,13.250885999994352,13.758459100034088,14.757626399979927,14.741796499933116,,,,,,,,,,000,002,2025-05-03_15h55.21.560,Cued GoNogo Task,2024.2.4,60.01205041367239,2025-05-03 15h55.36.068443 +0200,
block/CondBlock1.xlsx,You are about to start a block of type 1 trials.,2,2,0,Go,Go,0.12,0.2,0.05,space,blue,vertical,space,0.8030384000157937,None,space,1,0.3331454999279231,None,,,,0,0,0,0,0,2,2,2,14.757626399979927,,,,,,,,,,,,,,,,14.742202800000086,14.757626399979927,15.457678199978545,15.457678199978545,15.956667999969795,15.940886999946088,15.94160230003763,15.956667999969795,16.08979520003777,16.273015999933705,16.273015999933705,16.608215400017798,space,1,0.3331454999279231,None,16.612303899950348,17.12226820003707,18.12145849992521,18.105643499991857,,,,,,,,,,000,002,2025-05-03_15h55.21.560,Cued GoNogo Task,2024.2.4,60.01205041367239,2025-05-03 15h55.36.068443 +0200,
block/CondBlock1.xlsx,You are about to start a block of type 1 trials.,3,3,0,NoGo,NoGo,0.18,0.2,0.05,none,green,vertical,space,0.8030384000157937,None,None,1,,,,,,0,0,0,0,0,3,3,3,18.12145849992521,,,,,,,,,,,,,,,,18.105900299968198,18.12145849992521,18.82092399999965,18.82092399999965,19.320315400022082,19.304767500027083,19.30549479997717,19.320315400022082,19.503608600003645,19.703456799965352,19.703456799965352,20.187422499991953,None,1,,,20.190128699992783,20.70286149997264,21.70186329993885,21.686184899997897,20.20309179998003,20.20309179998003,,,,,,,,000,002,2025-05-03_15h55.21.560,Cued GoNogo Task,2024.2.4,60.01205041367239,2025-05-03 15h55.36.068443 +0200,
block/CondBlock1.xlsx,You are about to start a block of type 1 trials.,4,4,0,Go,Go,0.24,0.05,0.2,space,green,horizontal,space,0.8030384000157937,None,space,1,0.3515655000228435,None,,,,0,0,0,0,0,4,4,4,21.70186329993885,,,,,,,,,,,,,,,,21.68638570001349,21.70186329993885,22.40142879995983,22.40142879995983,22.90080569998827,22.885106200003065,22.885650099953637,22.90080569998827,23.150800099945627,23.333966800011694,23.333966800011694,23.701569900033064,space,1,0.3515655000228435,None,23.706571099930443,24.21674029994756,,25.2159673999995,,,,,,,,,,000,002,2025-05-03_15h55.21.560,Cued GoNogo Task,2024.2.4,60.01205041367239,2025-05-03 15h55.36.068443 +0200,
block/CondBlock1.xlsx,You are about to start a block of type 1 trials.,5,5,0,Go,Go,0.21,0.05,0.2,space,blue,horizontal,space,0.8030384000157937,None,space,1,0.36833309999201447,None,,,,0,0,0,0,0,5,5,5,25.232245599967428,,,,,,,,,,,,,,,,25.21624029998202,25.232245599967428,25.91525239998009,25.931889200001024,26.414806899963878,26.398783199954778,26.399566799984314,26.414806899963878,26.63117309997324,26.814405499957502,26.814405499957502,27.198683799942955,space,1,0.36833309999201447,None,27.204130699974485,27.71382269996684,,28.71292600000743,,,,,,,,,,000,002,2025-05-03_15h55.21.560,Cued GoNogo Task,2024.2.4,60.01205041367239,2025-05-03 15h55.36.068443 +0200,
block/CondBlock1.xlsx,You are about to start a block of type 1 trials.,6,6,0,Go,Go,0.11,0.2,0.05,space,blue,vertical,space,0.8030384000157937,None,space,1,0.3225993999512866,None,,,,0,0,0,0,0,6,6,6,28.729271800024435,,,,,,,,,,,,,,,,28.71314240002539,28.729271800024435,29.412360799964517,29.42905479995534,29.911857199971564,29.896294299978763,29.897083299933,29.911857199971564,30.028464199975133,30.211763700004667,30.211763700004667,30.5463291000342,space,1,0.3225993999512866,None,30.55069399997592,31.060962299932726,32.06030579993967,32.04421730001923,,,,,,,,,,000,002,2025-05-03_15h55.21.560,Cued GoNogo Task,2024.2.4,60.01205041367239,2025-05-03 15h55.36.068443 +0200,
block/CondBlock1.xlsx,You are about to start a block of type 1 trials.,7,7,0,Go,Go,0.15,0.2,0.05,space,blue,vertical,space,0.8030384000157937,None,space,1,0.324722999939695,None,,,,0,0,0,0,0,7,7,7,32.06030579993967,,,,,,,,,,,,,,,,32.04450509999879,32.06030579993967,32.7595029999502,32.7595029999502,33.259072799934074,33.242989099933766,33.24351019994356,33.259072799934074,33.40907069994137,33.608973799971864,33.608973799971864,33.942897900007665,space,1,0.324722999939695,None,33.947634599986486,34.458058499963954,35.45744189992547,35.44154140003957,,,,,,,,,,000,002,2025-05-03_15h55.21.560,Cued GoNogo Task,2024.2.4,60.01205041367239,2025-05-03 15h55.36.068443 +0200,
block/CondBlock1.xlsx,You are about to start a block of type 1 trials.,8,8,0,NoGo,NoGo,0.3,0.05,0.2,none,blue,horizontal,space,0.8030384000157937,None,space,0,0.2902266000164673,None,,,,0,0,0,0,0,8,8,8,35.45744189992547,,,,,,,,,,,,,,,,35.44182189996354,35.45744189992547,36.15662030002568,36.15662030002568,36.65643540001474,36.640695399953984,36.64146159996744,36.65643540001474,36.9561463999562,37.1559283999959,37.1559283999959,37.45681250002235,space,0,0.2902266000164673,None,37.46127309999429,37.971922699944116,38.97093930002302,38.95519140001852,,,,,,,,,,000,002,2025-05-03_15h55.21.560,Cued GoNogo Task,2024.2.4,60.01205041367239,2025-05-03 15h55.36.068443 +0200,
block/CondBlock1.xlsx,You are about to start a block of type 1 trials.,9,9,0,NoGo,NoGo,0.17,0.05,0.2,none,blue,horizontal,space,0.8030384000157937,None,None,1,,,,,,0,0,0,0,0,9,9,9,38.97093930002302,,,,,,,,,,,,,,,,38.955478199990466,38.97093930002302,39.6705454000039,39.6705454000039,40.16992389992811,40.15406430000439,40.15460070001427,40.16992389992811,40.354187199962325,40.53631260001566,40.53631260001566,41.0207751999842,None,1,,,41.0236617999617,41.53553869994357,42.534772499930114,42.51913709996734,41.03598990000319,41.03598990000319,,,,,,,,000,002,2025-05-03_15h55.21.560,Cued GoNogo Task,2024.2.4,60.01205041367239,2025-05-03 15h55.36.068443 +0200,
block/CondBlock1.xlsx,You are about to start a block of type 1 trials.,10,10,0,NoGo,NoGo,0.26,0.2,0.05,none,green,vertical,space,0.8030384000157937,None,None,1,,,,,,0,0,0,0,0,10,10,10,42.534772499930114,,,,,,,,,,,,,,,,42.519476099987514,42.534772499930114,43.234236899996176,43.234236899996176,43.73392879997846,43.71783219999634,43.718577999970876,43.73392879997846,44.00034569995478,44.183352799969725,44.183352799969725,44.66741929994896,None,1,,,44.66807599994354,45.18260860000737,46.18199089996051,46.165981599944644,44.68301679997239,44.68301679997239,,,,,,,,000,002,2025-05-03_15h55.21.560,Cued GoNogo Task,2024.2.4,60.01205041367239,2025-05-03 15h55.36.068443 +0200,
block/CondBlock1.xlsx,You are about to start a block of type 1 trials.,11,11,0,Go,Go,0.27,0.05,0.2,space,green,horizontal,space,0.8030384000157937,None,space,1,0.4236835000338033,None,,,,0,0,0,0,0,11,11,11,46.18199089996051,,,,,,,,,,,,,,,,46.166320199961774,46.18199089996051,46.88131740002427,46.88131740002427,47.38078669994138,47.364644299959764,47.36502070003189,47.38078669994138,47.663961899932474,47.84709679998923,47.84709679998923,48.28160149999894,space,1,0.4236835000338033,None,48.2861975999549,48.796186799998395,49.79540379997343,49.77983719995245,,,,,,,,,,000,002,2025-05-03_15h55.21.560,Cued GoNogo Task,2024.2.4,60.01205041367239,2025-05-03 15h55.36.068443 +0200,
block/CondBlock1.xlsx,You are about to start a block of type 1 trials.,12,12,0,Go,Go,0.16,0.2,0.05,space,green,vertical,space,0.8030384000157937,None,space,1,0.3670768999727443,None,,,,0,0,0,0,0,12,12,12,49.79540379997343,,,,,,,,,,,,,,,,49.78032180003356,49.79540379997343,50.494852200034074,50.494852200034074,50.994417599984445,50.97861859994009,50.97926179994829,50.994417599984445,51.1610340999905,51.34408940002322,51.34408940002322,51.71380179992411,space,1,0.3670768999727443,None,51.720476799993776,52.22676240000874,53.226055999984965,53.210354599985294,,,,,,,,,,000,002,2025-05-03_15h55.21.560,Cued GoNogo Task,2024.2.4,60.01205041367239,2025-05-03 15h55.36.068443 +0200,
block/CondBlock1.xlsx,You are about to start a block of type 1 trials.,13,13,0,Go,Go,0.13,0.2,0.05,space,green,vertical,space,0.8030384000157937,None,space,1,0.27194879995658994,None,,,,0,0,0,0,0,13,13,13,53.226055999984965,,,,,,,,,,,,,,,,53.210703999968246,53.226055999984965,53.925396600039676,53.925396600039676,54.42505149997305,54.40915970003698,54.40975799993612,54.42505149997305,54.55825769994408,54.75826559995767,54.75826559995767,55.04223489994183,space,1,0.27194879995658994,None,55.04665939998813,55.557352900039405,56.556559399934486,56.540457600029185,,,,,,,,,,000,002,2025-05-03_15h55.21.560,Cued GoNogo Task,2024.2.4,60.01205041367239,2025-05-03 15h55.36.068443 +0200,
block/CondBlock1.xlsx,You are about to start a block of type 1 trials.,14,14,0,Go,Go,0.12,0.05,0.2,space,blue,horizontal,space,0.8030384000157937,None,space,1,0.2859267999883741,None,,,,0,0,0,0,0,14,14,14,56.556559399934486,,,,,,,,,,,,,,,,56.54070300003514,56.556559399934486,57.256179100018926,57.256179100018926,57.7554986999603,57.7396022999892,57.740051300032064,57.7554986999603,57.88868490001187,58.07179770001676,58.07179770001676,58.37268719996791,space,1,0.2859267999883741,None,58.37588589999359,58.88795200001914,59.88727259996813,59.8710512999678,,,,,,,,,,000,002,2025-05-03_15h55.21.560,Cued GoNogo Task,2024.2.4,60.01205041367239,2025-05-03 15h55.36.068443 +0200,
block/CondBlock1.xlsx,You are about to start a block of type 1 trials.,15,15,0,Go,Go,0.45,0.2,0.05,space,blue,vertical,space,0.8030384000157937,None,space,1,0.3341245000483468,None,,,,0,0,0,0,0,15,15,15,59.88727259996813,,,,,,,,,,,,,,,,59.87131129996851,59.88727259996813,60.58678679994773,60.58678679994773,61.08617649995722,61.07038769999053,61.071148599963635,61.08617649995722,61.53586830000859,61.73563999996986,61.73563999996986,62.08653550001327,space,1,0.3341245000483468,None,62.090429799980484,62.60157249995973,63.60096459998749,63.58495679998305,,,,,,,,,,000,002,2025-05-03_15h55.21.560,Cued GoNogo Task,2024.2.4,60.01205041367239,2025-05-03 15h55.36.068443 +0200,
block/CondBlock1.xlsx,You are about to start a block of type 1 trials.,16,16,0,NoGo,NoGo,0.14,0.2,0.05,none,green,vertical,space,0.8030384000157937,None,space,0,0.33698509994428605,None,,,,0,0,0,0,0,16,16,16,63.60096459998749,,,,,,,,,,,,,,,,63.58533739997074,63.60096459998749,64.30015619995538,64.30015619995538,64.79975489992648,64.7838044000091,64.78454359993339,64.79975489992648,64.94968059996609,65.13276139996015,65.13276139996015,65.48398479993921,space,0,0.33698509994428605,None,65.49026260001119,65.99895099992864,66.9980893000029,66.98222949996125,,,,,,,,,,000,002,2025-05-03_15h55.21.560,Cued GoNogo Task,2024.2.4,60.01205041367239,2025-05-03 15h55.36.068443 +0200,
block/CondBlock1.xlsx,You are about to start a block of type 1 trials.,17,17,0,Go,Go,0.12,0.05,0.2,space,green,horizontal,space,0.8030384000157937,None,space,1,0.3486966999480501,None,,,,0,0,0,0,0,17,17,17,66.9980893000029,,,,,,,,,,,,,,,,66.98252129997127,66.9980893000029,67.69744289992377,67.69744289992377,68.19699289998971,68.18110849999357,68.1817092000274,68.19699289998971,68.33033010002691,68.5135116999736,68.5135116999736,68.86498309997842,space,1,0.3486966999480501,None,68.86919300002046,69.37938459997531,70.37862530001439,70.36294439993799,,,,,,,,,,000,002,2025-05-03_15h55.21.560,Cued GoNogo Task,2024.2.4,60.01205041367239,2025-05-03 15h55.36.068443 +0200,
block/CondBlock1.xlsx,You are about to start a block of type 1 trials.,18,18,0,Go,Go,0.47,0.2,0.05,space,blue,vertical,space,0.8030384000157937,None,space,1,0.38604080001823604,None,,,,0,0,0,0,0,18,18,18,70.37862530001439,,,,,,,,,,,,,,,,70.36333149997517,70.37862530001439,71.07798810000531,71.07798810000531,71.577594100032,71.56222209997941,71.5631713999901,71.577594100032,72.060552299954,72.24372869997751,72.24372869997751,72.6445226999931,space,1,0.38604080001823604,None,72.64853150001727,73.15969240001868,74.15870449994691,74.14308810001239,,,,,,,,,,000,002,2025-05-03_15h55.21.560,Cued GoNogo Task,2024.2.4,60.01205041367239,2025-05-03 15h55.36.068443 +0200,
block/CondBlock1.xlsx,You are about to start a block of type 1 trials.,19,19,0,Go,Go,0.18,0.2,0.05,space,green,vertical,space,0.8030384000157937,None,space,1,0.2656262000091374,None,,,,0,0,0,0,0,19,19,19,74.15870449994691,,,,,,,,,,,,,,,,74.14342490001582,74.15870449994691,74.85840199992526,74.85840199992526,75.35778810002375,75.34194079996087,75.34273259993643,75.35778810002375,75.54115649999585,75.72423829999752,75.72423829999752,75.9921967999544,space,1,0.2656262000091374,None,75.99496859998908,76.50679909996688,77.50595749996137,77.48982749995776,,,,,,,,,,000,002,2025-05-03_15h55.21.560,Cued GoNogo Task,2024.2.4,60.01205041367239,2025-05-03 15h55.36.068443 +0200,
block/CondBlock1.xlsx,You are about to start a block of type 1 trials.,20,20,0,Go,Go,0.19,0.2,0.05,space,blue,vertical,space,0.8030384000157937,None,space,1,0.36626590008381754,None,,,,0,0,0,0,0,20,20,20,77.50595749996137,,,,,,,,,,,,,,,,77.49007619998883,77.50595749996137,78.2054089999292,78.2054089999292,78.70493200002238,78.68914189992938,78.68978899996728,78.70493200002238,78.90485429996625,79.08796319994144,79.08796319994144,79.4565455999691,space,1,0.36626590008381754,None,79.45992449996993,79.97063310001977,80.96994530002121,80.95406989997718,,,,,,,,,,000,002,2025-05-03_15h55.21.560,Cued GoNogo Task,2024.2.4,60.01205041367239,2025-05-03 15h55.36.068443 +0200,
block/CondBlock1.xlsx,You are about to start a block of type 1 trials.,21,21,0,Go,Go,0.14,0.2,0.05,space,blue,vertical,space,0.8030384000157937,None,space,1,0.36102099996060133,None,,,,0,0,0,0,0,21,21,21,80.96994530002121,,,,,,,,,,,,,,,,80.95439969992731,80.96994530002121,81.66928189992905,81.66928189992905,82.16896869998891,82.1528576000128,82.15355579997413,82.16896869998891,82.31877989997156,82.50186089996714,82.50186089996714,82.86985190003179,space,1,0.36102099996060133,None,82.8747713000048,83.38456669996958,84.383664199966,84.3681981000118,,,,,,,,,,000,002,2025-05-03_15h55.21.560,Cued GoNogo Task,2024.2.4,60.01205041367239,2025-05-03 15h55.36.068443 +0200,
block/CondBlock1.xlsx,You are about to start a block of type 1 trials.,22,22,0,Go,Go,0.15,0.2,0.05,space,blue,vertical,space,0.8030384000157937,None,space,1,0.3453290000325069,None,,,,0,0,0,0,0,22,22,22,84.383664199966,,,,,,,,,,,,,,,,84.368570099934,84.383664199966,85.08309029997326,85.08309029997326,85.58278159995098,85.5667950999923,85.56739969993941,85.58278159995098,85.73266590002459,85.93244929995853,85.93244929995853,86.28330539993476,space,1,0.3453290000325069,None,86.28701400000136,86.79846349998843,87.79758769995533,87.78183460002765,,,,,,,,,,000,002,2025-05-03_15h55.21.560,Cued GoNogo Task,2024.2.4,60.01205041367239,2025-05-03 15h55.36.068443 +0200,
block/CondBlock1.xlsx,You are about to start a block of type 1 trials.,23,23,0,Go,Go,0.23,0.05,0.2,space,green,horizontal,space,0.8030384000157937,None,space,1,0.4019614999415353,None,,,,0,0,0,0,0,23,23,23,87.79758769995533,,,,,,,,,,,,,,,,87.78215929993894,87.79758769995533,88.49684589996468,88.49684589996468,88.99650959996507,88.98074669996276,88.98143179994076,88.99650959996507,89.22992549999617,89.41283109993674,89.41283109993674,89.83068260003347,space,1,0.4019614999415353,None,89.83594030002132,90.34556669997983,91.34470080002211,91.32860719994642,,,,,,,,,,000,002,2025-05-03_15h55.21.560,Cued GoNogo Task,2024.2.4,60.01205041367239,2025-05-03 15h55.36.068443 +0200,
block/CondBlock1.xlsx,You are about to start a block of type 1 trials.,24,24,0,Go,Go,0.2,0.2,0.05,space,blue,vertical,space,0.8030384000157937,None,None,0,,,,,,0,0,0,0,0,24,24,24,91.34470080002211,,,,,,,,,,,,,,,,91.32883949996904,91.34470080002211,92.04418169998098,92.04418169998098,92.5435870999936,92.52799929992761,92.5287048999453,92.5435870999936,92.7436021999456,92.94347609998658,92.94347609998658,93.42695849994197,None,0,,,93.43034870002884,93.94254519999959,94.9417187999934,94.92566990002524,93.4427647999255,93.4427647999255,,,,,,,,000,002,2025-05-03_15h55.21.560,Cued GoNogo Task,2024.2.4,60.01205041367239,2025-05-03 15h55.36.068443 +0200,
block/CondBlock1.xlsx,You are about to start a block of type 1 trials.,25,25,0,Go,Go,0.15,0.2,0.05,space,blue,vertical,space,0.8030384000157937,None,space,1,0.3232743999687955,None,,,,0,0,0,0,0,25,25,25,94.9417187999934,,,,,,,,,,,,,,,,94.92590689996723,94.9417187999934,95.64114610000979,95.64114610000979,96.1408426000271,96.12537479994353,96.12640559999272,96.1408426000271,96.2905155000044,96.49047920003068,96.49047920003068,96.82433540001512,space,1,0.3232743999687955,None,96.82777560001705,97.3398351999931,98.33894219994545,98.32306450000033,,,,,,,,,,000,002,2025-05-03_15h55.21.560,Cued GoNogo Task,2024.2.4,60.01205041367239,2025-05-03 15h55.36.068443 +0200,
block/CondBlock1.xlsx,You are about to start a block of type 1 trials.,26,26,0,NoGo,NoGo,0.2,0.2,0.05,none,blue,vertical,space,0.8030384000157937,None,None,1,,,,,,0,0,0,0,0,26,26,26,98.33894219994545,,,,,,,,,,,,,,,,98.32346049998887,98.33894219994545,99.03840550000314,99.03840550000314,99.53797529998701,99.52229270001408,99.52352549997158,99.53797529998701,99.73780360003002,99.93769469996914,99.93769469996914,100.42140679992735,None,1,,,100.42396009992808,100.93670119997114,101.93604449997656,101.91991679999046,100.43714809999801,100.43714809999801,,,,,,,,000,002,2025-05-03_15h55.21.560,Cued GoNogo Task,2024.2.4,60.01205041367239,2025-05-03 15h55.36.068443 +0200,
block/CondBlock1.xlsx,You are about to start a block of type 1 trials.,27,27,0,Go,Go,0.29,0.05,0.2,space,green,horizontal,space,0.8030384000157937,None,space,1,0.3647480000508949,None,,,,0,0,0,0,0,27,27,27,101.93604449997656,,,,,,,,,,,,,,,,101.92015429993626,101.93604449997656,102.63525639998261,102.63525639998261,103.13503759994637,103.11898529995233,103.11973040003795,103.13503759994637,103.4347090999363,103.61785399995279,103.61785399995279,103.98545689997263,space,1,0.3647480000508949,None,103.98921769997105,104.50047780002933,105.49963740003295,105.48347969993483,,,,,,,,,,000,002,2025-05-03_15h55.21.560,Cued GoNogo Task,2024.2.4,60.01205041367239,2025-05-03 15h55.36.068443 +0200,
block/CondBlock1.xlsx,You are about to start a block of type 1 trials.,28,28,0,Go,Go,0.24,0.2,0.05,space,blue,vertical,space,0.8030384000157937,None,space,1,0.34730909997597337,None,,,,0,0,0,0,0,28,28,28,105.49963740003295,,,,,,,,,,,,,,,,105.48368770000525,105.49963740003295,106.19931639998686,106.19931639998686,106.6987056999933,106.68266719998792,106.68325060000643,106.6987056999933,106.94867159996647,107.13165919994935,107.13165919994935,107.48331349994987,space,1,0.34730909997597337,None,107.48827430000529,107.9976774000097,108.99676519993227,108.98114599997643,,,,,,,,,,000,002,2025-05-03_15h55.21.560,Cued GoNogo Task,2024.2.4,60.01205041367239,2025-05-03 15h55.36.068443 +0200,
block/CondBlock1.xlsx,You are about to start a block of type 1 trials.,29,29,0,Go,Go,0.15,0.05,0.2,space,green,horizontal,space,0.8030384000157937,None,space,1,0.43649079999886453,None,,,,0,0,0,0,0,29,29,29,108.99676519993227,,,,,,,,,,,,,,,,108.9814902000362,108.99676519993227,109.69623000000138,109.69623000000138,110.19572920002975,110.17987989995163,110.18047200003639,110.19572920002975,110.34568489994854,110.54540549998637,110.54540549998637,110.99602950003464,space,1,0.43649079999886453,None,111.00051699997857,111.5116370000178,,112.5108154999325,,,,,,,,,,000,002,2025-05-03_15h55.21.560,Cued GoNogo Task,2024.2.4,60.01205041367239,2025-05-03 15h55.36.068443 +0200,
block/CondBlock1.xlsx,You are about to start a block of type 1 trials.,30,30,0,Go,Go,0.23,0.2,0.05,space,green,vertical,space,0.8030384000157937,None,space,1,0.44847760000266135,None,,,,0,0,0,0,0,30,30,30,112.52716960001271,,,,,,,,,,,,,,,,112.51107020000927,112.52716960001271,113.21001579996664,113.226781400037,113.70970629993826,113.69397989998106,113.6946071999846,113.70970629993826,113.94284030003473,114.12605059996713,114.12605059996713,114.57708910002839,space,1,0.44847760000266135,None,114.58046999992803,115.09185910003725,116.09086350002326,116.07533899997361,,,,,,,,,,000,002,2025-05-03_15h55.21.560,Cued GoNogo Task,2024.2.4,60.01205041367239,2025-05-03 15h55.36.068443 +0200,
block/CondBlock1.xlsx,You are about to start a block of type 1 trials.,31,31,0,Go,Go,0.28,0.2,0.05,space,green,vertical,space,0.8030384000157937,None,space,1,0.36251710006035864,None,,,,0,0,0,0,0,31,31,31,116.09086350002326,,,,,,,,,,,,,,,,116.07560280000325,116.09086350002326,116.79040830000304,116.79040830000304,117.29005459998734,117.27418559999205,117.27493950002827,117.29005459998734,117.57310000003781,117.75620119995438,117.75620119995438,118.12386829999741,space,1,0.36251710006035864,None,118.12830630003009,118.63884179992601,119.63814369996544,119.62215329997707,,,,,,,,,,000,002,2025-05-03_15h55.21.560,Cued GoNogo Task,2024.2.4,60.01205041367239,2025-05-03 15h55.36.068443 +0200,
block/CondBlock1.xlsx,You are about to start a block of type 1 trials.,32,32,0,Go,Go,0.19,0.2,0.05,space,green,vertical,space,0.8030384000157937,None,space,1,0.27382560004480183,None,,,,0,0,0,0,0,32,32,32,119.63814369996544,,,,,,,,,,,,,,,,119.62242199992761,119.63814369996544,120.33753030002117,120.33753030002117,120.83716609992553,120.82151779998094,120.82238909997977,120.83716609992553,121.03676719998475,121.22001169994473,121.22001169994473,121.50388440000825,space,1,0.27382560004480183,None,121.50673689995892,122.01943660003599,123.01875819999259,123.00260569993407,,,,,,,,,,000,002,2025-05-03_15h55.21.560,Cued GoNogo Task,2024.2.4,60.01205041367239,2025-05-03 15h55.36.068443 +0200,
block/CondBlock1.xlsx,You are about to start a block of type 1 trials.,33,33,0,Go,Go,0.12,0.2,0.05,space,green,vertical,space,0.8030384000157937,None,space,1,0.375988099956885,None,,,,0,0,0,0,0,33,33,33,123.01875819999259,,,,,,,,,,,,,,,,123.00286919996142,123.01875819999259,123.71810900000855,123.71810900000855,124.2176164999837,124.20184500003234,124.20254820003174,124.2176164999837,124.35089659993537,124.53408320003655,124.53408320003655,124.91816450003535,space,1,0.375988099956885,None,124.9216789000202,125.43323219998274,126.43252979998942,126.41687289997935,,,,,,,,,,000,002,2025-05-03_15h55.21.560,Cued GoNogo Task,2024.2.4,60.01205041367239,2025-05-03 15h55.36.068443 +0200,
block/CondBlock1.xlsx,You are about to start a block of type 1 trials.,34,34,0,Go,Go,0.18,0.2,0.05,space,blue,vertical,space,0.8030384000157937,None,space,1,0.25641979998908937,None,,,,0,0,0,0,0,34,34,34,126.43252979998942,,,,,,,,,,,,,,,,126.41725729999598,126.43252979998942,127.13183850003406,127.13183850003406,127.63157149998005,127.61538630002178,127.61595030000899,127.63157149998005,127.81465810001828,127.99791719997302,127.99791719997302,128.2652739000041,space,1,0.25641979998908937,None,128.26884599996265,128.78036969993263,129.77968709997367,129.76384429994505,,,,,,,,,,000,002,2025-05-03_15h55.21.560,Cued GoNogo Task,2024.2.4,60.01205041367239,2025-05-03 15h55.36.068443 +0200,
block/CondBlock1.xlsx,You are about to start a block of type 1 trials.,35,35,0,Go,Go,0.21,0.2,0.05,space,blue,vertical,space,0.8030384000157937,None,space,1,0.3083258999977261,None,,,,0,0,0,0,0,35,35,35,129.77968709997367,,,,,,,,,,,,,,,,129.7641240999801,129.77968709997367,130.4791983999312,130.4791983999312,130.9788177999435,130.96262170001864,130.96328499994706,130.9788177999435,131.19534189999104,131.3783966000192,131.3783966000192,131.69589510001242,space,1,0.3083258999977261,None,131.70063869992737,132.2109991000034,133.21016280003823,133.1942577000009,,,,,,,,,,000,002,2025-05-03_15h55.21.560,Cued GoNogo Task,2024.2.4,60.01205041367239,2025-05-03 15h55.36.068443 +0200,
block/CondBlock1.xlsx,You are about to start a block of type 1 trials.,36,36,0,Go,Go,0.2,0.2,0.05,space,green,vertical,space,0.8030384000157937,None,space,1,0.2537374999374151,None,,,,0,0,0,0,0,36,36,36,133.21016280003823,,,,,,,,,,,,,,,,133.19453640002757,133.21016280003823,133.909573599929,133.909573599929,134.4092695999425,134.39320309995674,134.39368700003251,134.4092695999425,134.60908089997247,134.80894220003393,134.80894220003393,135.0771178000141,space,1,0.2537374999374151,None,135.08095630002208,135.59170340001583,136.59064650000073,136.57483329996467,,,,,,,,,,000,002,2025-05-03_15h55.21.560,Cued GoNogo Task,2024.2.4,60.01205041367239,2025-05-03 15h55.36.068443 +0200,
block/CondBlock1.xlsx,You are about to start a block of type 1 trials.,37,37,0,Go,Go,0.45,0.05,0.2,space,blue,horizontal,space,0.8030384000157937,None,space,1,0.3181602000258863,None,,,,0,0,0,0,0,37,37,37,136.59064650000073,,,,,,,,,,,,,,,,136.5751460000174,136.59064650000073,137.29012489994057,137.29012489994057,137.7897981000133,137.77367639995646,137.7741207999643,137.7897981000133,138.23926589998882,138.43931269994937,138.43931269994937,138.77341030002572,space,1,0.3181602000258863,None,138.776809199946,139.28847499995027,140.28757199994288,140.27141599997412,,,,,,,,,,000,002,2025-05-03_15h55.21.560,Cued GoNogo Task,2024.2.4,60.01205041367239,2025-05-03 15h55.36.068443 +0200,
block/CondBlock1.xlsx,You are about to start a block of type 1 trials.,38,38,0,Go,Go,0.13,0.05,0.2,space,blue,horizontal,space,0.8030384000157937,None,space,1,0.36344759992789477,None,,,,0,0,0,0,0,38,38,38,140.28757199994288,,,,,,,,,,,,,,,,140.27160590002313,140.28757199994288,140.98735650000162,140.98735650000162,141.48688009998295,141.47076149994973,141.47129190003034,141.48688009998295,141.6199706000043,141.8032621999737,141.8032621999737,142.17079230002128,space,1,0.36344759992789477,None,142.17454679997172,142.68567409995012,143.6849971000338,143.66896439995617,,,,,,,,,,000,002,2025-05-03_15h55.21.560,Cued GoNogo Task,2024.2.4,60.01205041367239,2025-05-03 15h55.36.068443 +0200,
block/CondBlock1.xlsx,You are about to start a block of type 1 trials.,39,39,0,Go,Go,0.46,0.2,0.05,space,blue,vertical,space,0.8030384000157937,None,space,1,0.272753500030376,None,,,,0,0,0,0,0,39,39,39,143.6849971000338,,,,,,,,,,,,,,,,143.66929889994208,143.6849971000338,144.38428639993072,144.38428639993072,144.8837394999573,144.86822790000588,144.8689734999789,144.8837394999573,145.35012429999188,145.5334488999797,145.5334488999797,145.81791560002603,space,1,0.272753500030376,None,145.82294799992815,146.33275910001248,147.3319227999309,147.3166024000384,,,,,,,,,,000,002,2025-05-03_15h55.21.560,Cued GoNogo Task,2024.2.4,60.01205041367239,2025-05-03 15h55.36.068443 +0200,
block/CondBlock1.xlsx,You are about to start a block of type 1 trials.,40,40,0,Go,Go,0.29,0.2,0.05,space,blue,vertical,space,0.8030384000157937,None,space,1,0.27960639994125813,None,,,,0,0,0,0,0,40,40,40,147.3319227999309,,,,,,,,,,,,,,,,147.31705519999377,147.3319227999309,148.03141319996212,148.03141319996212,148.5307697999524,148.514749999973,148.51514599996153,148.5307697999524,148.8306802000152,149.01400910003576,149.01400910003576,149.29837480001152,space,1,0.27960639994125813,None,149.30243309994694,149.81324059993494,150.81254770001397,150.79629670002032,,,,,,,,,,000,002,2025-05-03_15h55.21.560,Cued GoNogo Task,2024.2.4,60.01205041367239,2025-05-03 15h55.36.068443 +0200,
block/CondBlock1.xlsx,You are about to start a block of type 1 trials.,41,41,0,Go,Go,0.22,0.2,0.05,space,blue,vertical,space,0.8030384000157937,None,space,1,0.35514030000194907,None,,,,0,0,0,0,0,41,41,41,150.81254770001397,,,,,,,,,,,,,,,,150.7965502999723,150.81254770001397,151.51182699995115,151.51182699995115,152.0113683999516,151.99564909993205,151.9963865999598,152.0113683999516,152.244637100026,152.42758230003528,152.42758230003528,152.7952040999662,space,1,0.35514030000194907,None,152.79935560002923,153.31051069998648,154.30939960002434,154.29337760002818,,,,,,,,,,000,002,2025-05-03_15h55.21.560,Cued GoNogo Task,2024.2.4,60.01205041367239,2025-05-03 15h55.36.068443 +0200,
block/CondBlock1.xlsx,You are about to start a block of type 1 trials.,42,42,0,Go,Go,0.49,0.2,0.05,space,blue,vertical,space,0.8030384000157937,None,space,1,0.31173940002918243,None,,,,0,0,0,0,0,42,42,42,154.30939960002434,,,,,,,,,,,,,,,,154.29356349993031,154.30939960002434,155.00886249996256,155.00886249996256,155.50833730003797,155.49240410001948,155.49302789999638,155.50833730003797,156.00813470000867,156.19151579996105,156.19151579996105,156.50869819999207,space,1,0.31173940002918243,None,156.51151480001863,157.02398359996732,158.0229771999875,158.00734459992964,,,,,,,,,,000,002,2025-05-03_15h55.21.560,Cued GoNogo Task,2024.2.4,60.01205041367239,2025-05-03 15h55.36.068443 +0200,
block/CondBlock1.xlsx,You are about to start a block of type 1 trials.,43,43,0,Go,Go,0.2,0.2,0.05,space,blue,vertical,space,0.8030384000157937,None,space,1,0.4087135000154376,None,,,,0,0,0,0,0,43,43,43,158.0229771999875,,,,,,,,,,,,,,,,158.0076327000279,158.0229771999875,158.72256509994622,158.72256509994622,159.2220732999267,159.2060949000297,159.20670340000652,159.2220732999267,159.4219473999692,159.62186720001046,159.62186720001046,160.03940110001713,space,1,0.4087135000154376,None,160.0438012999948,160.5543275999371,161.55351579992566,161.5380968999816,,,,,,,,,,000,002,2025-05-03_15h55.21.560,Cued GoNogo Task,2024.2.4,60.01205041367239,2025-05-03 15h55.36.068443 +0200,
block/CondBlock1.xlsx,You are about to start a block of type 1 trials.,44,44,0,Go,Go,0.3,0.05,0.2,space,blue,horizontal,space,0.8030384000157937,None,space,1,0.32215569994878024,None,,,,0,0,0,0,0,44,44,44,161.55351579992566,,,,,,,,,,,,,,,,161.5384171999758,161.55351579992566,162.2530645999359,162.2530645999359,162.75244770001154,162.73704099992756,162.73783969995566,162.75244770001154,163.0525062000379,163.2522212000331,163.2522212000331,163.5863204000052,space,1,0.32215569994878024,None,163.59081379999407,164.1014356999658,165.10061159997713,165.08513629995286,,,,,,,,,,000,002,2025-05-03_15h55.21.560,Cued GoNogo Task,2024.2.4,60.01205041367239,2025-05-03 15h55.36.068443 +0200,
block/CondBlock1.xlsx,You are about to start a block of type 1 trials.,45,45,0,NoGo,NoGo,0.21,0.05,0.2,none,green,horizontal,space,0.8030384000157937,None,space,0,0.30777720001060516,None,,,,0,0,0,0,0,45,45,45,165.10061159997713,,,,,,,,,,,,,,,,165.0854688999243,165.10061159997713,165.80011489999015,165.80011489999015,166.2997030999977,166.28405619994737,166.28467550000641,166.2997030999977,166.51608279999346,166.6993436999619,166.6993436999619,167.0168075999245,space,0,0.30777720001060516,None,167.0213678999571,167.5319127999246,168.53119370003697,168.51552859996445,,,,,,,,,,000,002,2025-05-03_15h55.21.560,Cued GoNogo Task,2024.2.4,60.01205041367239,2025-05-03 15h55.36.068443 +0200,
block/CondBlock1.xlsx,You are about to start a block of type 1 trials.,46,46,0,NoGo,NoGo,0.45,0.05,0.2,none,blue,horizontal,space,0.8030384000157937,None,None,1,,,,,,0,0,0,0,0,46,46,46,168.53119370003697,,,,,,,,,,,,,,,,168.5157695999369,168.53119370003697,169.2304981999332,169.2304981999332,169.73018640000373,169.71476549992803,169.71568969998043,169.73018640000373,170.1798773999326,170.37976099993102,170.37976099993102,170.86315069999546,None,1,,,170.86504509998485,171.36237430002075,172.37798430002294,172.36203890002798,170.8791496999329,170.8791496999329,,,,,,,,000,002,2025-05-03_15h55.21.560,Cued GoNogo Task,2024.2.4,60.01205041367239,2025-05-03 15h55.36.068443 +0200,
block/CondBlock1.xlsx,You are about to start a block of type 1 trials.,47,47,0,Go,Go,0.24,0.05,0.2,space,green,horizontal,space,0.8030384000157937,None,space,1,0.30757120007183403,None,,,,0,0,0,0,0,47,47,47,172.37798430002294,,,,,,,,,,,,,,,,172.362286199932,172.37798430002294,173.0775647999253,173.0775647999253,173.57697890000418,173.56131609994918,173.56193139997777,173.57697890000418,173.82676630001515,174.0100835999474,174.0100835999474,174.3277826999547,space,1,0.30757120007183403,None,174.33185670000967,174.84264869999606,175.84184709994588,175.82599299994763,,,,,,,,,,000,002,2025-05-03_15h55.21.560,Cued GoNogo Task,2024.2.4,60.01205041367239,2025-05-03 15h55.36.068443 +0200,
block/CondBlock1.xlsx,You are about to start a block of type 1 trials.,48,48,0,NoGo,NoGo,0.15,0.2,0.05,none,blue,vertical,space,0.8030384000157937,None,None,1,,,,,,0,0,0,0,0,48,48,48,175.84184709994588,,,,,,,,,,,,,,,,175.8263811999932,175.84184709994588,176.5414085999364,176.5414085999364,177.04071099997964,177.02488279994577,177.0255835999269,177.04071099997964,177.19059340003878,177.3903755999636,177.3903755999636,177.87417319999076,None,1,,,177.8771168999374,178.38940829993226,179.38876639993396,179.37274060002528,177.8902544999728,177.8902544999728,,,,,,,,000,002,2025-05-03_15h55.21.560,Cued GoNogo Task,2024.2.4,60.01205041367239,2025-05-03 15h55.36.068443 +0200,
block/CondBlock1.xlsx,You are about to start a block of type 1 trials.,49,49,0,Go,Go,0.12,0.05,0.2,space,blue,horizontal,space,0.8030384000157937,None,None,0,,,,,,0,0,0,0,0,49,49,49,179.38876639993396,,,,,,,,,,,,,,,,179.37293610000052,179.38876639993396,180.0883574000327,180.0883574000327,180.58775549998973,180.57174589997157,180.5721884999657,180.58775549998973,180.7209483999759,180.9041574000148,180.9041574000148,181.38825830002315,None,0,,,181.39102089998778,181.9034558000276,182.90249320003204,182.88643549999688,181.4038181999931,181.4038181999931,,,,,,,,000,002,2025-05-03_15h55.21.560,Cued GoNogo Task,2024.2.4,60.01205041367239,2025-05-03 15h55.36.068443 +0200,
block/CondBlock1.xlsx,You are about to start a block of type 1 trials.,50,50,0,Go,Go,0.22,0.2,0.05,space,green,vertical,space,0.8030384000157937,None,space,1,0.2639676999533549,None,,,,0,0,0,0,0,50,50,50,182.90249320003204,,,,,,,,,,,,,,,,182.88659669994377,182.90249320003204,183.60210779996123,183.60210779996123,184.10153099999297,184.0854516000254,184.08583879994694,184.10153099999297,184.33475269994233,184.51780050003435,184.51780050003435,184.7852185999509,space,1,0.2639676999533549,None,184.7879579999717,185.30046269996092,186.29968069994356,186.28381900000386,,,,,,,,,,000,002,2025-05-03_15h55.21.560,Cued GoNogo Task,2024.2.4,60.01205041367239,2025-05-03 15h55.36.068443 +0200,
block/CondBlock1.xlsx,You are about to start a block of type 1 trials.,51,51,0,Go,Go,0.28,0.05,0.2,space,green,horizontal,space,0.8030384000157937,None,space,1,0.31375630002003163,None,,,,0,0,0,0,0,51,51,51,186.29968069994356,,,,,,,,,,,,,,,,186.2840224999236,186.29968069994356,186.99918559996877,186.99918559996877,187.49863809999079,187.48238729999866,187.4828220999334,187.49863809999079,187.78212410002016,187.96517710003536,187.96517710003536,188.28275649994612,space,1,0.31375630002003163,None,188.2866922999965,188.7979785000207,189.79695610003546,189.78107549995184,,,,,,,,,,000,002,2025-05-03_15h55.21.560,Cued GoNogo Task,2024.2.4,60.01205041367239,2025-05-03 15h55.36.068443 +0200,
block/CondBlock1.xlsx,You are about to start a block of type 1 trials.,52,52,0,Go,Go,0.23,0.2,0.05,space,green,vertical,space,0.8030384000157937,None,space,1,0.31375329999718815,None,,,,0,0,0,0,0,52,52,52,189.79695610003546,,,,,,,,,,,,,,,,189.7814168999903,189.79695610003546,190.49626079993322,190.49626079993322,190.99599640001543,190.98049929994158,190.98103399993852,190.99599640001543,191.22918949997984,191.4124681999674,191.4124681999674,191.73004890000448,space,1,0.31375329999718815,None,191.7306607000064,192.24506949994247,193.2441334000323,193.22837439994328,,,,,,,,,,000,002,2025-05-03_15h55.21.560,Cued GoNogo Task,2024.2.4,60.01205041367239,2025-05-03 15h55.36.068443 +0200,
block/CondBlock1.xlsx,You are about to start a block of type 1 trials.,53,53,0,Go,Go,0.22,0.05,0.2,space,green,horizontal,space,0.8030384000157937,None,space,1,0.33074530004523695,None,,,,0,0,0,0,0,53,53,53,193.2441334000323,,,,,,,,,,,,,,,,193.2286340999417,193.2441334000323,193.94355379999615,193.94355379999615,194.4432550999336,194.42725219996646,194.42796220001765,194.4432550999336,194.67635530000553,194.85962040000595,194.85962040000595,195.19356899999548,space,1,0.33074530004523695,None,195.19682149996515,195.70883090002462,196.70802309992723,196.69193269999232,,,,,,,,,,000,002,2025-05-03_15h55.21.560,Cued GoNogo Task,2024.2.4,60.01205041367239,2025-05-03 15h55.36.068443 +0200,
block/CondBlock1.xlsx,You are about to start a block of type 1 trials.,54,54,0,NoGo,NoGo,0.14,0.05,0.2,none,green,horizontal,space,0.8030384000157937,None,space,0,0.2617269998881966,None,,,,0,0,0,0,0,54,54,54,196.70802309992723,,,,,,,,,,,,,,,,196.6921870999504,196.70802309992723,197.40756359999068,197.40756359999068,197.9069808999775,197.89104509993922,197.89177290000953,197.9069808999775,198.0569198000012,198.240119199967,198.240119199967,198.50790610001422,space,0,0.2617269998881966,None,198.51318220002577,199.02273720002268,200.02196699997876,200.00654309999663,,,,,,,,,,000,002,2025-05-03_15h55.21.560,Cued GoNogo Task,2024.2.4,60.01205041367239,2025-05-03 15h55.36.068443 +0200,
block/CondBlock1.xlsx,You are about to start a block of type 1 trials.,55,55,0,Go,Go,0.15,0.2,0.05,space,blue,vertical,space,0.8030384000157937,None,space,1,0.2837490000529215,None,,,,0,0,0,0,0,55,55,55,200.02196699997876,,,,,,,,,,,,,,,,200.00702449993696,200.02196699997876,200.72133580001537,200.72133580001537,201.22081560001243,201.20521139993798,201.20590469997842,201.22081560001243,201.37086689996067,201.57069530000445,201.57069530000445,201.8716373000061,space,1,0.2837490000529215,None,201.8752263999777,202.3869420000119,203.38570290000644,203.37050740001723,,,,,,,,,,000,002,2025-05-03_15h55.21.560,Cued GoNogo Task,2024.2.4,60.01205041367239,2025-05-03 15h55.36.068443 +0200,
block/CondBlock1.xlsx,You are about to start a block of type 1 trials.,56,56,0,Go,Go,0.47,0.2,0.05,space,blue,vertical,space,0.8030384000157937,None,space,1,0.2990896999835968,None,,,,0,0,0,0,0,56,56,56,203.38570290000644,,,,,,,,,,,,,,,,203.3709491000045,203.38570290000644,204.08530419995077,204.08530419995077,204.58483309997246,204.56913239997812,204.5698151999386,204.58483309997246,205.06770729995333,205.2508224999765,205.2508224999765,205.55242409999482,space,1,0.2990896999835968,None,205.55619619996287,206.06694739998784,207.06618560000788,207.05032219993882,,,,,,,,,,000,002,2025-05-03_15h55.21.560,Cued GoNogo Task,2024.2.4,60.01205041367239,2025-05-03 15h55.36.068443 +0200,
block/CondBlock1.xlsx,You are about to start a block of type 1 trials.,57,57,0,NoGo,NoGo,0.42,0.2,0.05,none,green,vertical,space,0.8030384000157937,None,None,1,,,,,,0,0,0,0,0,57,57,57,207.06618560000788,,,,,,,,,,,,,,,,207.05057459999807,207.06618560000788,207.7656210999703,207.7656210999703,208.2651409000391,208.24939599994104,208.25003430002835,208.2651409000391,208.69796319992747,208.88134870002978,208.88134870002978,209.36494659993332,None,1,,,209.36754509992898,209.88047580001876,210.8797059999779,210.86396230000537,209.38087959995028,209.38087959995028,,,,,,,,000,002,2025-05-03_15h55.21.560,Cued GoNogo Task,2024.2.4,60.01205041367239,2025-05-03 15h55.36.068443 +0200,
block/CondBlock1.xlsx,You are about to start a block of type 1 trials.,58,58,0,Go,Go,0.22,0.05,0.2,space,green,horizontal,space,0.8030384000157937,None,space,1,0.32031870004720986,None,,,,0,0,0,0,0,58,58,58,210.8797059999779,,,,,,,,,,,,,,,,210.86427829996683,210.8797059999779,211.57916989992373,211.57916989992373,212.078718499979,212.06276679993607,212.0633419000078,212.078718499979,212.3117452999577,212.49491150001995,212.49491150001995,212.82960399996955,space,1,0.32031870004720986,None,212.83392579993233,213.34454640001059,,214.3437116999412,,,,,,,,,,000,002,2025-05-03_15h55.21.560,Cued GoNogo Task,2024.2.4,60.01205041367239,2025-05-03 15h55.36.068443 +0200,
block/CondBlock1.xlsx,You are about to start a block of type 1 trials.,59,59,0,Go,Go,0.3,0.2,0.05,space,blue,vertical,space,0.8030384000157937,None,space,1,0.3965318000409752,None,,,,0,0,0,0,0,59,59,59,214.36015910003334,,,,,,,,,,,,,,,,214.34400389995426,214.36015910003334,215.04305660002865,215.05943449994083,215.5423896999564,215.52635790000204,215.52679849998094,215.5423896999564,215.84234219999053,216.042023899965,216.042023899965,216.44391729997005,space,1,0.3965318000409752,None,216.44998010003474,216.95795710000675,217.957363500027,217.9414664999349,,,,,,,,,,000,002,2025-05-03_15h55.21.560,Cued GoNogo Task,2024.2.4,60.01205041367239,2025-05-03 15h55.36.068443 +0200,
block/CondBlock1.xlsx,You are about to start a block of type 1 trials.,60,60,0,NoGo,NoGo,0.24,0.2,0.05,none,blue,vertical,space,0.8030384000157937,None,None,1,,,,,,0,0,0,0,0,60,60,60,217.957363500027,,,,,,,,,,,,,,,,217.94178510003258,217.957363500027,218.65675249998458,218.65675249998458,219.15614300000016,219.14008539996576,219.14061709993985,219.15614300000016,219.4059891999932,219.58931199996732,219.58931199996732,220.07261679996736,None,1,,,220.0748212999897,220.57168809999712,221.57087659998797,221.55531109997537,220.08869310002774,220.08869310002774,,,,,,,,000,002,2025-05-03_15h55.21.560,Cued GoNogo Task,2024.2.4,60.01205041367239,2025-05-03 15h55.36.068443 +0200,
block/CondBlock1.xlsx,You are about to start a block of type 1 trials.,61,61,0,NoGo,NoGo,0.1,0.2,0.05,none,green,vertical,space,0.8030384000157937,None,space,0,0.2719448999268934,None,,,,0,0,0,0,0,61,61,61,221.57087659998797,,,,,,,,,,,,,,,,221.55563019996043,221.587432899978,222.28690099995583,222.28690099995583,222.786533699953,222.77049879997503,222.7711580999894,222.786533699953,222.8863014000235,223.0864331999328,223.0864331999328,223.37064009997994,space,0,0.2719448999268934,None,223.37571399996523,223.88568039995153,224.88480060000438,224.86942090000957,,,,,,,,,,000,002,2025-05-03_15h55.21.560,Cued GoNogo Task,2024.2.4,60.01205041367239,2025-05-03 15h55.36.068443 +0200,
block/CondBlock1.xlsx,You are about to start a block of type 1 trials.,62,62,0,Go,Go,0.45,0.05,0.2,space,blue,horizontal,space,0.8030384000157937,None,space,1,0.33686999999918044,None,,,,0,0,0,0,0,62,62,62,224.88480060000438,,,,,,,,,,,,,,,,224.8698682000395,224.88480060000438,225.58405790000688,225.58405790000688,226.0837131999433,226.06805350002833,226.06873329996597,226.0837131999433,226.5334412000375,226.73329989996273,226.73329989996273,227.08399479999207,space,1,0.33686999999918044,None,227.08769029995892,227.59933909995016,228.59835530002601,228.58245590003207,,,,,,,,,,000,002,2025-05-03_15h55.21.560,Cued GoNogo Task,2024.2.4,60.01205041367239,2025-05-03 15h55.36.068443 +0200,
block/CondBlock1.xlsx,You are about to start a block of type 1 trials.,63,63,0,Go,Go,0.1,0.05,0.2,space,green,horizontal,space,0.8030384000157937,None,space,1,0.32471680000890046,None,,,,0,0,0,0,0,63,63,63,228.59835530002601,,,,,,,,,,,,,,,,228.58271620003507,228.59835530002601,229.29792779998388,229.29792779998388,229.7975929999957,229.78156399994623,229.7821385000134,229.7975929999957,229.89731739996932,230.09710729995277,230.09710729995277,230.4312113999622,space,1,0.32471680000890046,None,230.43445990001783,230.9463657999877,231.9458891999675,231.93025660002604,,,,,,,,,,000,002,2025-05-03_15h55.21.560,Cued GoNogo Task,2024.2.4,60.01205041367239,2025-05-03 15h55.36.068443 +0200,
block/CondBlock1.xlsx,You are about to start a block of type 1 trials.,64,64,0,Go,Go,0.19,0.05,0.2,space,blue,horizontal,space,0.8030384000157937,None,space,1,0.30196700000669807,None,,,,0,0,0,0,0,64,64,64,231.9458891999675,,,,,,,,,,,,,,,,231.93070229992736,231.9458891999675,232.6450522999512,232.6450522999512,233.14455520000774,233.12886089994572,233.12952399998903,233.14455520000774,233.3443645000225,233.52773660002276,233.52773660002276,233.84540490002837,space,1,0.30196700000669807,None,233.84966850001365,234.36035410000477,235.35948530002497,235.34397749998607,,,,,,,,,,000,002,2025-05-03_15h55.21.560,Cued GoNogo Task,2024.2.4,60.01205041367239,2025-05-03 15h55.36.068443 +0200,
block/CondBlock1.xlsx,You are about to start a block of type 1 trials.,65,65,0,Go,Go,0.21,0.2,0.05,space,blue,vertical,space,0.8030384000157937,None,space,1,0.31949260004330426,None,,,,0,0,0,0,0,65,65,65,235.35948530002497,,,,,,,,,,,,,,,,235.3444113000296,235.35948530002497,236.0588865999598,236.0588865999598,236.55865989997983,236.54259690002073,236.54336370003875,236.55865989997983,236.7750112999929,236.95837010000832,236.95837010000832,237.2923041000031,space,1,0.31949260004330426,None,237.29613119992428,237.80751219997182,,238.80681929993443,,,,,,,,,,000,002,2025-05-03_15h55.21.560,Cued GoNogo Task,2024.2.4,60.01205041367239,2025-05-03 15h55.36.068443 +0200,
block/CondBlock1.xlsx,You are about to start a block of type 1 trials.,66,66,0,Go,Go,0.18,0.05,0.2,space,blue,horizontal,space,0.8030384000157937,None,space,1,0.29795369994826615,None,,,,0,0,0,0,0,66,66,66,238.82328559993766,,,,,,,,,,,,,,,,238.80704099999275,238.82328559993766,239.50615569995716,239.52271739998832,240.0058386999881,239.98961089993827,239.99035580002237,240.0058386999881,240.1889441999374,240.37217139999848,240.37217139999848,240.67354400001932,space,1,0.29795369994826615,None,240.67702249996364,241.18813599995337,242.18714569997974,242.17125310003757,,,,,,,,,,000,002,2025-05-03_15h55.21.560,Cued GoNogo Task,2024.2.4,60.01205041367239,2025-05-03 15h55.36.068443 +0200,
block/CondBlock1.xlsx,You are about to start a block of type 1 trials.,67,67,0,Go,Go,0.29,0.2,0.05,space,green,vertical,space,0.8030384000157937,None,space,1,0.28089319996070117,None,,,,0,0,0,0,0,67,67,67,242.18714569997974,,,,,,,,,,,,,,,,242.1715097000124,242.18714569997974,242.88667389994953,242.88667389994953,243.38632900000084,243.37017519993242,243.3706275000004,243.38632900000084,243.68616099993233,243.8692003999604,243.8692003999604,244.15343860001303,space,1,0.28089319996070117,None,244.15791419998277,244.66855419997592,245.6677817000309,245.65172970003914,,,,,,,,,,000,002,2025-05-03_15h55.21.560,Cued GoNogo Task,2024.2.4,60.01205041367239,2025-05-03 15h55.36.068443 +0200,
block/CondBlock1.xlsx,You are about to start a block of type 1 trials.,68,68,0,NoGo,NoGo,0.24,0.2,0.05,none,blue,vertical,space,0.8030384000157937,None,None,1,,,,,,0,0,0,0,0,68,68,68,245.6677817000309,,,,,,,,,,,,,,,,245.6520038000308,245.6677817000309,246.36708380002528,246.36708380002528,246.86681189993396,246.850737700006,246.85142570000608,246.86681189993396,247.11643039993942,247.2996368999593,247.2996368999593,247.78351480001584,None,1,,,247.78582500002813,248.29899249994196,,249.29824739997275,247.79921009996906,247.79921009996906,,,,,,,,000,002,2025-05-03_15h55.21.560,Cued GoNogo Task,2024.2.4,60.01205041367239,2025-05-03 15h55.36.068443 +0200,
block/CondBlock1.xlsx,You are about to start a block of type 1 trials.,69,69,0,Go,Go,0.27,0.05,0.2,space,green,horizontal,space,0.8030384000157937,None,space,1,0.2746946000261232,None,,,,0,0,0,0,0,69,69,69,249.31468249997124,,,,,,,,,,,,,,,,249.29853659996297,249.31468249997124,249.99747760000173,250.01420989993494,250.4970574999461,250.48128599999472,250.48220279999077,250.4970574999461,250.78012459992897,250.96347550000064,250.96347550000064,251.24774939997587,space,1,0.2746946000261232,None,251.25171909993514,251.762773299939,252.76186400000006,252.74569599993993,,,,,,,,,,000,002,2025-05-03_15h55.21.560,Cued GoNogo Task,2024.2.4,60.01205041367239,2025-05-03 15h55.36.068443 +0200,
block/CondBlock1.xlsx,You are about to start a block of type 1 trials.,70,70,0,Go,Go,0.25,0.2,0.05,space,green,vertical,space,0.8030384000157937,None,space,1,0.2754422000143677,None,,,,0,0,0,0,0,70,70,70,252.76186400000006,,,,,,,,,,,,,,,,252.7459136999678,252.76186400000006,253.461547599989,253.461547599989,253.9610490000341,253.94530559994746,253.94613379996736,253.9610490000341,254.21076059993356,254.4107653000392,254.4107653000392,254.69529209996108,space,1,0.2754422000143677,None,254.7001040999312,255.21004449995235,256.2092246999964,256.1931331999367,,,,,,,,,,000,002,2025-05-03_15h55.21.560,Cued GoNogo Task,2024.2.4,60.01205041367239,2025-05-03 15h55.36.068443 +0200,
block/CondBlock1.xlsx,You are about to start a block of type 1 trials.,71,71,0,Go,Go,0.28,0.05,0.2,space,green,horizontal,space,0.8030384000157937,None,space,1,0.2197940000332892,None,,,,0,0,0,0,0,71,71,71,256.2092246999964,,,,,,,,,,,,,,,,256.1934033000143,256.2092246999964,256.9084225000115,256.9084225000115,257.40811269998085,257.3921747999266,257.3928580000065,257.40811269998085,257.69114759995136,257.8745508999564,257.8745508999564,258.10884010000154,space,1,0.2197940000332892,None,258.11190929997247,258.62385470001027,,259.62287469999865,,,,,,,,,,000,002,2025-05-03_15h55.21.560,Cued GoNogo Task,2024.2.4,60.01205041367239,2025-05-03 15h55.36.068443 +0200,
block/CondBlock1.xlsx,You are about to start a block of type 1 trials.,72,72,0,Go,Go,0.14,0.05,0.2,space,blue,horizontal,space,0.8030384000157937,None,space,1,0.24290109996218234,None,,,,0,0,0,0,0,72,72,72,259.6393709999975,,,,,,,,,,,,,,,,259.62310109997634,259.6393709999975,260.32223059993703,260.3391143999761,260.82194860000163,260.8060423999559,260.80662889999803,260.82194860000163,260.97188019996975,261.1549733999418,261.1549733999418,261.4059717999771,space,1,0.24290109996218234,None,261.410626100027,261.9209341999376,262.92027929995675,262.9040716999443,,,,,,,,,,000,002,2025-05-03_15h55.21.560,Cued GoNogo Task,2024.2.4,60.01205041367239,2025-05-03 15h55.36.068443 +0200,
block/CondBlock1.xlsx,You are about to start a block of type 1 trials.,73,73,0,Go,Go,0.11,0.05,0.2,space,blue,horizontal,space,0.8030384000157937,None,space,1,0.21206859999801964,None,,,,0,0,0,0,0,73,73,73,262.92027929995675,,,,,,,,,,,,,,,,262.9043296999298,262.92027929995675,263.619526399998,263.619526399998,264.1191273999866,264.10346399992704,264.1042101000203,264.1191273999866,264.2357138999505,264.4189566000132,264.4189566000132,264.63672169996426,space,1,0.21206859999801964,None,264.64120419998653,265.15176000003703,266.15108899993356,266.13490029994864,,,,,,,,,,000,002,2025-05-03_15h55.21.560,Cued GoNogo Task,2024.2.4,60.01205041367239,2025-05-03 15h55.36.068443 +0200,
block/CondBlock1.xlsx,You are about to start a block of type 1 trials.,74,74,0,Go,Go,0.22,0.2,0.05,space,blue,vertical,space,0.8030384000157937,None,space,1,0.39240030001383275,None,,,,0,0,0,0,0,74,74,74,266.15108899993356,,,,,,,,,,,,,,,,266.13519549998455,266.15108899993356,266.85017480002716,266.85017480002716,267.3498411999317,267.33386939996853,267.3344349999679,267.3498411999317,267.58308799995575,267.76627529994585,267.76627529994585,268.1669518999988,space,1,0.39240030001383275,None,268.17099439993035,268.6822058999678,269.68147209996823,269.66541140002664,,,,,,,,,,000,002,2025-05-03_15h55.21.560,Cued GoNogo Task,2024.2.4,60.01205041367239,2025-05-03 15h55.36.068443 +0200,
block/CondBlock1.xlsx,You are about to start a block of type 1 trials.,75,75,0,Go,Go,0.26,0.05,0.2,space,blue,horizontal,space,0.8030384000157937,None,space,1,0.27585309999994934,None,,,,0,0,0,0,0,75,75,75,269.68147209996823,,,,,,,,,,,,,,,,269.6656863000244,269.68147209996823,270.3806481999345,270.3806481999345,270.8802594000008,270.86462340003345,270.8655260000378,270.8802594000008,271.1469800999621,271.32982929993887,271.32982929993887,271.61427020002156,space,1,0.27585309999994934,None,271.6184736000141,272.12949129997287,273.1284500999609,273.1129869000288,,,,,,,,,,000,002,2025-05-03_15h55.21.560,Cued GoNogo Task,2024.2.4,60.01205041367239,2025-05-03 15h55.36.068443 +0200,
block/CondBlock1.xlsx,You are about to start a block of type 1 trials.,76,76,0,Go,Go,0.14,0.2,0.05,space,green,vertical,space,0.8030384000157937,None,space,1,0.2889812000794336,None,,,,0,0,0,0,0,76,76,76,273.1284500999609,,,,,,,,,,,,,,,,273.1134713999927,273.1284500999609,273.8278383000288,273.8278383000288,274.32747779996134,274.3114696999546,274.3120649999473,274.32747779996134,274.47741980000865,274.6608646999812,274.6608646999812,274.9613320999779,space,1,0.2889812000794336,None,274.9650607999647,275.4766157999402,276.4755940999603,276.45963289996143,,,,,,,,,,000,002,2025-05-03_15h55.21.560,Cued GoNogo Task,2024.2.4,60.01205041367239,2025-05-03 15h55.36.068443 +0200,
block/CondBlock1.xlsx,You are about to start a block of type 1 trials.,77,77,0,Go,Go,0.18,0.05,0.2,space,green,horizontal,space,0.8030384000157937,None,space,1,0.2693524999776855,None,,,,0,0,0,0,0,77,77,77,276.4755940999603,,,,,,,,,,,,,,,,276.45983129995875,276.4755940999603,277.1752184999641,277.1752184999641,277.6746190999402,277.6589897000231,277.65978689992335,277.6746190999402,277.8578773000045,278.0409353999421,278.0409353999421,278.3253600000171,space,1,0.2693524999776855,None,278.33056000003126,278.8404525000369,279.8397733999882,279.8239962999942,,,,,,,,,,000,002,2025-05-03_15h55.21.560,Cued GoNogo Task,2024.2.4,60.01205041367239,2025-05-03 15h55.36.068443 +0200,
block/CondBlock1.xlsx,You are about to start a block of type 1 trials.,78,78,0,NoGo,NoGo,0.27,0.05,0.2,none,blue,horizontal,space,0.8030384000157937,None,None,1,,,,,,0,0,0,0,0,78,78,78,279.8397733999882,,,,,,,,,,,,,,,,279.8243760999758,279.8397733999882,280.5391234999988,280.5391234999988,281.0385324000381,281.02250179997645,281.02309479995165,281.0385324000381,281.32178530003875,281.5050170000177,281.5050170000177,281.98833339998964,None,1,,,281.9901517999824,282.48756209993735,283.48659600003157,283.4720308999531,282.0044862999348,282.0044862999348,,,,,,,,000,002,2025-05-03_15h55.21.560,Cued GoNogo Task,2024.2.4,60.01205041367239,2025-05-03 15h55.36.068443 +0200,
block/CondBlock1.xlsx,You are about to start a block of type 1 trials.,79,79,0,NoGo,NoGo,0.26,0.2,0.05,none,blue,vertical,space,0.8030384000157937,None,space,0,0.28657740005292,None,,,,0,0,0,0,0,79,79,79,283.48659600003157,,,,,,,,,,,,,,,,283.4723603000166,283.48659600003157,284.20260690001305,284.1860016999999,284.7022636999609,284.68657589994837,284.68735259992536,284.7022636999609,284.968810499995,285.1518041000236,285.1518041000236,285.45279859995935,space,0,0.28657740005292,None,285.4577400999842,285.96788290003315,286.96734909992665,286.9509907999309,,,,,,,,,,000,002,2025-05-03_15h55.21.560,Cued GoNogo Task,2024.2.4,60.01205041367239,2025-05-03 15h55.36.068443 +0200,
block/CondBlock1.xlsx,You are about to start a block of type 1 trials.,80,80,0,Go,Go,0.22,0.2,0.05,space,green,vertical,space,0.8030384000157937,None,space,1,0.2553764999611303,None,,,,0,0,0,0,0,80,80,80,286.96734909992665,,,,,,,,,,,,,,,,286.9512643000344,286.96734909992665,287.66643099999055,287.66643099999055,288.16596320003737,288.15021460002754,288.1508609999437,288.16596320003737,288.39916439994704,288.5830867999466,288.5830867999466,288.8502334000077,space,1,0.2553764999611303,None,288.8544042999856,289.36510880000424,290.36456359992735,290.34861859993543,,,,,,,,,,000,002,2025-05-03_15h55.21.560,Cued GoNogo Task,2024.2.4,60.01205041367239,2025-05-03 15h55.36.068443 +0200,
block/CondBlock1.xlsx,You are about to start a block of type 1 trials.,81,81,0,Go,Go,0.5,0.2,0.05,space,green,vertical,space,0.8030384000157937,None,space,1,0.2964133999776095,None,,,,0,0,0,0,0,81,81,81,290.36456359992735,,,,,,,,,,,,,,,,290.3489344000118,290.36456359992735,291.0636690999381,291.0636690999381,291.56340720003936,291.5474197999574,291.54788570001256,291.56340720003936,292.06286679999903,292.2628458000254,292.2628458000254,292.5634290999733,space,1,0.2964133999776095,None,292.56705790001433,293.0788646999281,294.0780690999236,294.0619597999612,,,,,,,,,,000,002,2025-05-03_15h55.21.560,Cued GoNogo Task,2024.2.4,60.01205041367239,2025-05-03 15h55.36.068443 +0200,
block/CondBlock1.xlsx,You are about to start a block of type 1 trials.,82,82,0,Go,Go,0.43,0.05,0.2,space,green,horizontal,space,0.8030384000157937,None,space,1,0.3446665999945253,None,,,,0,0,0,0,0,82,82,82,294.0780690999236,,,,,,,,,,,,,,,,294.06224250001833,294.0780690999236,294.777344299946,294.777344299946,295.2769967999775,295.2610393000068,295.26175950001925,295.2769967999775,295.709883500007,295.89311199996155,295.89311199996155,296.2438874000218,space,1,0.3446665999945253,None,296.24733829998877,296.7590386000229,297.75807059998624,297.7422854999313,,,,,,,,,,000,002,2025-05-03_15h55.21.560,Cued GoNogo Task,2024.2.4,60.01205041367239,2025-05-03 15h55.36.068443 +0200,
block/CondBlock1.xlsx,You are about to start a block of type 1 trials.,83,83,0,Go,Go,0.25,0.2,0.05,space,green,vertical,space,0.8030384000157937,None,space,1,0.2796890999889001,None,,,,0,0,0,0,0,83,83,83,297.75807059998624,,,,,,,,,,,,,,,,297.742530599935,297.75807059998624,298.45769399998244,298.45769399998244,298.95717289997265,298.9417446999578,298.9428459999617,298.95717289997265,299.2070118000265,299.4070566999726,299.4070566999726,299.6915275999345,space,1,0.2796890999889001,None,299.69670790003147,300.20644999993965,,301.20557089999784,,,,,,,,,,000,002,2025-05-03_15h55.21.560,Cued GoNogo Task,2024.2.4,60.01205041367239,2025-05-03 15h55.36.068443 +0200,
block/CondBlock1.xlsx,You are about to start a block of type 1 trials.,84,84,0,NoGo,NoGo,0.14,0.2,0.05,none,green,vertical,space,0.8030384000157937,None,None,1,,,,,,0,0,0,0,0,84,84,84,301.22225250001065,,,,,,,,,,,,,,,,301.2057981999824,301.22225250001065,301.9047385000158,301.92132480000146,302.4043539999984,302.3885917000007,302.3892581999535,302.4043539999984,302.5544216999551,302.7373836999759,302.7373836999759,303.2210530999582,None,1,,,303.2232504999265,303.73654399998486,304.73583329992834,304.719751299941,303.2369604000123,303.2369604000123,,,,,,,,000,002,2025-05-03_15h55.21.560,Cued GoNogo Task,2024.2.4,60.01205041367239,2025-05-03 15h55.36.068443 +0200,
block/CondBlock1.xlsx,You are about to start a block of type 1 trials.,85,85,0,Go,Go,0.2,0.05,0.2,space,blue,horizontal,space,0.8030384000157937,None,space,1,0.28762969991657883,None,,,,0,0,0,0,0,85,85,85,304.73583329992834,,,,,,,,,,,,,,,,304.7199724999955,304.73583329992834,305.43508910003584,305.43508910003584,305.9347155999858,305.9191053999821,305.919767400017,305.9347155999858,306.13479989999905,306.3345092999516,306.3345092999516,306.6355707999319,space,1,0.28762969991657883,None,306.63935449998826,307.15053330000956,308.14964770001825,308.1335806000279,,,,,,,,,,000,002,2025-05-03_15h55.21.560,Cued GoNogo Task,2024.2.4,60.01205041367239,2025-05-03 15h55.36.068443 +0200,
block/CondBlock1.xlsx,You are about to start a block of type 1 trials.,86,86,0,Go,Go,0.16,0.2,0.05,space,blue,vertical,space,0.8030384000157937,None,space,1,0.3243419999489561,None,,,,0,0,0,0,0,86,86,86,308.14964770001825,,,,,,,,,,,,,,,,308.1337952000322,308.14964770001825,308.84925740002654,308.84925740002654,309.3487225000281,309.33283999993,309.33352059999015,309.3487225000281,309.5152745000087,309.6983793999534,309.6983793999534,310.0325980000198,space,1,0.3243419999489561,None,310.037302599987,310.5475976000307,311.54697759996634,311.53081929998007,,,,,,,,,,000,002,2025-05-03_15h55.21.560,Cued GoNogo Task,2024.2.4,60.01205041367239,2025-05-03 15h55.36.068443 +0200,
block/CondBlock1.xlsx,You are about to start a block of type 1 trials.,87,87,0,Go,Go,0.41,0.2,0.05,space,green,vertical,space,0.8030384000157937,None,space,1,0.3965860999887809,None,,,,0,0,0,0,0,87,87,87,311.54697759996634,,,,,,,,,,,,,,,,311.531103599933,311.54697759996634,312.2464237000095,312.2464237000095,312.7459189000074,312.7300415999489,312.73111960000824,312.7459189000074,313.1622215999523,313.34522929997183,313.34522929997183,313.7461712999502,space,1,0.3965860999887809,None,313.7494973000139,314.2615130000049,,315.2605777999852,,,,,,,,,,000,002,2025-05-03_15h55.21.560,Cued GoNogo Task,2024.2.4,60.01205041367239,2025-05-03 15h55.36.068443 +0200,
block/CondBlock1.xlsx,You are about to start a block of type 1 trials.,88,88,0,NoGo,NoGo,0.15,0.2,0.05,none,green,vertical,space,0.8030384000157937,None,None,1,,,,,,0,0,0,0,0,88,88,88,315.2770675999345,,,,,,,,,,,,,,,,315.2607791000046,315.2770675999345,315.9598252000287,315.97661210002843,316.45960729999933,316.4437139999354,316.4444108000025,316.45960729999933,316.6095123999985,316.8092152000172,316.8092152000172,317.2928323999513,None,1,,,317.29501280002296,317.80843350000214,,318.80764070001896,317.3088626000099,317.3088626000099,,,,,,,,000,002,2025-05-03_15h55.21.560,Cued GoNogo Task,2024.2.4,60.01205041367239,2025-05-03 15h55.36.068443 +0200,
block/CondBlock1.xlsx,You are about to start a block of type 1 trials.,89,89,0,Go,Go,0.24,0.05,0.2,space,blue,horizontal,space,0.8030384000157937,None,space,1,0.33476630004588515,None,,,,0,0,0,0,0,89,89,89,318.82409340003505,,,,,,,,,,,,,,,,318.8078451999463,318.82409340003505,319.5071121000219,319.5237637000391,320.0065840999596,319.99090770003386,319.9917143000057,320.0065840999596,320.2562271000352,320.43957039993256,320.43957039993256,320.7902249000035,space,1,0.33476630004588515,None,320.79412620002404,321.3056846000254,,322.30493029998615,,,,,,,,,,000,002,2025-05-03_15h55.21.560,Cued GoNogo Task,2024.2.4,60.01205041367239,2025-05-03 15h55.36.068443 +0200,
block/CondBlock1.xlsx,You are about to start a block of type 1 trials.,90,90,0,Go,Go,0.25,0.2,0.05,space,blue,vertical,space,0.8030384000157937,None,space,1,0.3732989999698475,None,,,,0,0,0,0,0,90,90,90,322.3215366000077,,,,,,,,,,,,,,,,322.3051819000393,322.3215366000077,323.0041790000396,323.0206802999601,323.50360369996633,323.4881970999995,323.48884929995984,323.50360369996633,323.753361399984,323.9533300999319,323.9533300999319,324.33767499995884,space,1,0.3732989999698475,None,324.34172429994214,324.85294889996294,,325.85198799998034,,,,,,,,,,000,002,2025-05-03_15h55.21.560,Cued GoNogo Task,2024.2.4,60.01205041367239,2025-05-03 15h55.36.068443 +0200,
block/CondBlock1.xlsx,You are about to start a block of type 1 trials.,91,91,0,Go,Go,0.26,0.05,0.2,space,green,horizontal,space,0.8030384000157937,None,space,1,0.38559019996318966,None,,,,0,0,0,0,0,91,91,91,325.86846259993035,,,,,,,,,,,,,,,,325.8524365000194,325.86846259993035,326.55115940002725,326.5678383000195,327.05087419995107,327.0348755000159,327.03548830002546,327.05087419995107,327.31740349996835,327.50049759994727,327.50049759994727,327.90120309998747,space,1,0.38559019996318966,None,327.90505399997346,328.41634360002354,329.41538599994965,329.39957010000944,,,,,,,,,,000,002,2025-05-03_15h55.21.560,Cued GoNogo Task,2024.2.4,60.01205041367239,2025-05-03 15h55.36.068443 +0200,
block/CondBlock1.xlsx,You are about to start a block of type 1 trials.,92,92,0,NoGo,NoGo,0.44,0.2,0.05,none,blue,vertical,space,0.8030384000157937,None,None,1,,,,,,0,0,0,0,0,92,92,92,329.41538599994965,,,,,,,,,,,,,,,,329.39983729994856,329.41538599994965,330.1149267000146,330.1149267000146,330.61460939992685,330.59904779994395,330.5997447000118,330.61460939992685,331.0641889999388,331.24734659993555,331.24734659993555,331.7317553999601,None,1,,,331.7347884000046,332.2465923000127,333.24560200003907,333.2299173999345,331.74689720000606,331.74689720000606,,,,,,,,000,002,2025-05-03_15h55.21.560,Cued GoNogo Task,2024.2.4,60.01205041367239,2025-05-03 15h55.36.068443 +0200,
block/CondBlock1.xlsx,You are about to start a block of type 1 trials.,93,93,0,Go,Go,0.13,0.2,0.05,space,green,vertical,space,0.8030384000157937,None,None,0,,,,,,0,0,0,0,0,93,93,93,333.24560200003907,,,,,,,,,,,,,,,,333.2301659999648,333.24560200003907,333.94503609999083,333.94503609999083,334.44465099996887,334.4289629999548,334.42957789998036,334.44465099996887,334.577820800012,334.76113649993204,334.76113649993204,335.2449256000109,None,0,,,335.24791809997987,335.7602361999452,336.75951010000426,336.7436418000143,335.260718000005,335.260718000005,,,,,,,,000,002,2025-05-03_15h55.21.560,Cued GoNogo Task,2024.2.4,60.01205041367239,2025-05-03 15h55.36.068443 +0200,
block/CondBlock1.xlsx,You are about to start a block of type 1 trials.,94,94,0,Go,Go,0.44,0.05,0.2,space,blue,horizontal,space,0.8030384000157937,None,space,1,0.43047040002420545,None,,,,0,0,0,0,0,94,94,94,336.75951010000426,,,,,,,,,,,,,,,,336.7439311000053,336.75951010000426,337.458956199931,337.458956199931,337.95853950001765,337.94246789999306,337.9430002999725,337.95853950001765,338.40834760002326,338.5913934999844,338.5913934999844,339.02560189994983,space,1,0.43047040002420545,None,339.03010840003844,339.5403739999747,340.53967580001336,340.5240496000042,,,,,,,,,,000,002,2025-05-03_15h55.21.560,Cued GoNogo Task,2024.2.4,60.01205041367239,2025-05-03 15h55.36.068443 +0200,
block/CondBlock1.xlsx,You are about to start a block of type 1 trials.,95,95,0,Go,Go,0.15,0.2,0.05,space,green,vertical,space,0.8030384000157937,None,space,1,0.262392699951306,None,,,,0,0,0,0,0,95,95,95,340.53967580001336,,,,,,,,,,,,,,,,340.52439719997346,340.53967580001336,341.2390258000232,341.2390258000232,341.7387013999978,341.72283179999795,341.72349410003517,341.7387013999978,341.8885848999489,342.08846719993744,342.08846719993744,342.35590660001617,space,1,0.262392699951306,None,342.36022579995915,342.87108299997635,343.8702514999313,343.8544735999312,,,,,,,,,,000,002,2025-05-03_15h55.21.560,Cued GoNogo Task,2024.2.4,60.01205041367239,2025-05-03 15h55.36.068443 +0200,
block/CondBlock1.xlsx,You are about to start a block of type 1 trials.,96,96,0,Go,Go,0.49,0.2,0.05,space,green,vertical,space,0.8030384000157937,None,space,1,0.33432319993153214,None,,,,0,0,0,0,0,96,96,96,343.8702514999313,,,,,,,,,,,,,,,,343.8547222999623,343.8702514999313,344.5697545999428,344.5697545999428,345.06923789996654,345.0534071000293,345.0538413999602,345.06923789996654,345.5689936999697,345.75210049992893,345.75210049992893,346.1026673000306,space,1,0.33432319993153214,None,346.1067003000062,346.618031400023,347.6171413999982,347.6012516999617,,,,,,,,,,000,002,2025-05-03_15h55.21.560,Cued GoNogo Task,2024.2.4,60.01205041367239,2025-05-03 15h55.36.068443 +0200,
block/CondBlock1.xlsx,You are about to start a block of type 1 trials.,97,97,0,Go,Go,0.11,0.2,0.05,space,blue,vertical,space,0.8030384000157937,None,space,1,0.31367059994954616,None,,,,0,0,0,0,0,97,97,97,347.6171413999982,,,,,,,,,,,,,,,,347.6015450999839,347.6171413999982,348.316469399957,348.316469399957,348.8162243999541,348.8001216999255,348.8005476000253,348.8162243999541,348.9329197999323,349.1159671000205,349.1159671000205,349.4330312999664,space,1,0.31367059994954616,None,349.4357575000031,349.93198719993234,350.9310146999778,350.9156015999615,,,,,,,,,,000,002,2025-05-03_15h55.21.560,Cued GoNogo Task,2024.2.4,60.01205041367239,2025-05-03 15h55.36.068443 +0200,
block/CondBlock1.xlsx,You are about to start a block of type 1 trials.,98,98,0,Go,Go,0.26,0.05,0.2,space,green,horizontal,space,0.8030384000157937,None,space,1,0.33855219988618046,None,,,,0,0,0,0,0,98,98,98,350.9310146999778,,,,,,,,,,,,,,,,350.9158900999464,350.9476675000042,351.6472345000366,351.6472345000366,352.1468653000193,352.1312731000362,352.1321069999831,352.1468653000193,352.41332599997986,352.5962892000098,352.5962892000098,352.94753410003614,space,1,0.33855219988618046,None,352.95274999993853,353.462399299955,354.46167829993647,354.44570099993143,,,,,,,,,,000,002,2025-05-03_15h55.21.560,Cued GoNogo Task,2024.2.4,60.01205041367239,2025-05-03 15h55.36.068443 +0200,
block/CondBlock1.xlsx,You are about to start a block of type 1 trials.,99,99,0,Go,Go,0.28,0.05,0.2,space,green,horizontal,space,0.8030384000157937,None,space,1,0.3436467000283301,None,,,,0,0,0,0,0,99,99,99,354.46167829993647,,,,,,,,,,,,,,,,354.4459804999642,354.46167829993647,355.16097530000843,355.16097530000843,355.66065830003936,355.6448585999897,355.6456445000367,355.66065830003936,355.94372199999634,356.1268704000395,356.1268704000395,356.4778939000098,space,1,0.3436467000283301,None,356.4826135999756,356.9929667999968,,357.99227139994036,,,,,,,,,,000,002,2025-05-03_15h55.21.560,Cued GoNogo Task,2024.2.4,60.01205041367239,2025-05-03 15h55.36.068443 +0200,
block/CondBlock1.xlsx,You are about to start a block of type 1 trials.,0,0,0,,,,,,,,,space,0.8030384000157937,None,,,,,space,1.4769204000476748,None,0,0,0,0,,,,,,,,,,,,,,,,,,,,,,,,,,,,,,,,,,,,,,,,,,,358.0071154999314,358.0092582999496,358.0092582999496,359.4918420999311,space,1.4769204000476748,None,000,002,2025-05-03_15h55.21.560,Cued GoNogo Task,2024.2.4,60.01205041367239,2025-05-03 15h55.36.068443 +0200,
block/CondBlock2.xlsx,You are about to start a block of type 2 trials.,0,0,0,Go,Go,0.18,0.05,0.2,space,green,horizontal,space,133.9103539000498,None,space,1,0.2661416999762878,None,,,,0,1,1,1,0,0,0,0,493.4580048000207,,,,,,,,,359.4951133999275,359.50719689996913,359.50719689996913,493.4211583000142,space,133.9103539000498,None,493.45212439994793,493.4580048000207,494.1300223999424,494.1634682000149,494.62977539992426,494.6139733999735,494.6149833999807,494.62977539992426,494.81282769993413,495.0128171000397,495.0128171000397,495.2815945999464,space,1,0.2661416999762878,None,495.2866268999642,495.7954739999259,496.79461149999406,496.77911310002673,,,,,,,,,,000,002,2025-05-03_15h55.21.560,Cued GoNogo Task,2024.2.4,60.01205041367239,2025-05-03 15h55.36.068443 +0200,
block/CondBlock2.xlsx,You are about to start a block of type 2 trials.,1,1,0,Go,Go,0.2,0.2,0.05,space,green,vertical,space,133.9103539000498,None,space,1,0.2847412000410259,None,,,,0,1,1,1,0,1,1,1,496.79461149999406,,,,,,,,,,,,,,,,496.77958570001647,496.79461149999406,497.49404110002797,497.49404110002797,497.9934723000042,497.97732980002183,497.97782469994854,497.9934723000042,498.1933551999973,498.39322560001165,498.39322560001165,498.694154900033,space,1,0.2847412000410259,None,498.6978190999944,499.2094495999627,500.20832889992744,500.19259290001355,,,,,,,,,,000,002,2025-05-03_15h55.21.560,Cued GoNogo Task,2024.2.4,60.01205041367239,2025-05-03 15h55.36.068443 +0200,
block/CondBlock2.xlsx,You are about to start a block of type 2 trials.,2,2,0,Go,Go,0.22,0.05,0.2,space,blue,horizontal,space,133.9103539000498,None,space,1,0.311723499908112,None,,,,0,1,1,1,0,2,2,2,500.20832889992744,,,,,,,,,,,,,,,,500.19290180003736,500.20832889992744,500.9078234999906,500.9078234999906,501.4073074000189,501.3916671000188,501.39231409993954,501.4073074000189,501.6405105999438,501.8237475999631,501.8237475999631,502.1412153999554,space,1,0.311723499908112,None,502.14487890002783,502.65644569997676,503.65544290002435,503.63947219995316,,,,,,,,,,000,002,2025-05-03_15h55.21.560,Cued GoNogo Task,2024.2.4,60.01205041367239,2025-05-03 15h55.36.068443 +0200,
block/CondBlock2.xlsx,You are about to start a block of type 2 trials.,3,3,0,Go,Go,0.14,0.05,0.2,space,green,horizontal,space,133.9103539000498,None,space,1,0.2668251999421045,None,,,,0,1,1,1,0,3,3,3,503.65544290002435,,,,,,,,,,,,,,,,503.6397504999768,503.65544290002435,504.3549112000037,504.3549112000037,504.8544083000161,504.8385085000191,504.8391115999548,504.8544083000161,505.0043654999463,505.187535700039,505.187535700039,505.45660469995346,space,1,0.2668251999421045,None,505.4612678999547,505.97050890000537,,506.96972219995223,,,,,,,,,,000,002,2025-05-03_15h55.21.560,Cued GoNogo Task,2024.2.4,60.01205041367239,2025-05-03 15h55.36.068443 +0200,
block/CondBlock2.xlsx,You are about to start a block of type 2 trials.,4,4,0,Go,Go,0.26,0.05,0.2,space,blue,horizontal,space,133.9103539000498,None,space,1,0.2924663000740111,None,,,,0,1,1,1,0,4,4,4,506.9862691999879,,,,,,,,,,,,,,,,506.97004789998755,506.9862691999879,507.66898960003164,507.6854335999815,508.1685007000342,508.15283409995027,508.15364219993353,508.1685007000342,508.434971199953,508.6181292999536,508.6181292999536,508.9189576000208,space,1,0.2924663000740111,None,508.9228121000342,509.43421019997913,510.4330433999421,510.41783169994596,,,,,,,,,,000,002,2025-05-03_15h55.21.560,Cued GoNogo Task,2024.2.4,60.01205041367239,2025-05-03 15h55.36.068443 +0200,
block/CondBlock2.xlsx,You are about to start a block of type 2 trials.,5,5,0,Go,Go,0.1,0.05,0.2,space,blue,horizontal,space,133.9103539000498,None,space,1,0.2184513999382034,None,,,,0,1,1,1,0,5,5,5,510.4330433999421,,,,,,,,,,,,,,,,510.41808430000674,510.4330433999421,511.13287939992733,511.13287939992733,511.63227519998327,511.61627689993475,511.6168553000316,511.63227519998327,511.732316999929,511.93195899995044,511.93195899995044,512.1668413999723,space,1,0.2184513999382034,None,512.1716327000177,512.6816230999539,513.6806002999656,513.6648146000225,,,,,,,,,,000,002,2025-05-03_15h55.21.560,Cued GoNogo Task,2024.2.4,60.01205041367239,2025-05-03 15h55.36.068443 +0200,
block/CondBlock2.xlsx,You are about to start a block of type 2 trials.,6,6,0,NoGo,NoGo,0.3,0.2,0.05,none,green,vertical,space,133.9103539000498,None,space,0,0.21875599992927164,None,,,,0,1,1,1,0,6,6,6,513.6806002999656,,,,,,,,,,,,,,,,513.66511609999,513.6806002999656,514.379967099987,514.379967099987,514.8798806000268,514.8636688999832,514.8643172000302,514.8798806000268,515.1793625999708,515.3793447000207,515.3793447000207,515.6134768000338,space,0,0.21875599992927164,None,515.6179085000185,516.1285170000046,517.1277985000052,517.112034699996,,,,,,,,,,000,002,2025-05-03_15h55.21.560,Cued GoNogo Task,2024.2.4,60.01205041367239,2025-05-03 15h55.36.068443 +0200,
block/CondBlock2.xlsx,You are about to start a block of type 2 trials.,7,7,0,NoGo,NoGo,0.14,0.05,0.2,none,blue,horizontal,space,133.9103539000498,None,space,0,0.24352500005625188,None,,,,0,1,1,1,0,7,7,7,517.1277985000052,,,,,,,,,,,,,,,,517.1123273000121,517.1277985000052,517.8271257999586,517.8271257999586,518.3268075999804,518.3106450999621,518.311260699993,518.3268075999804,518.4766488999594,518.6598889000015,518.6598889000015,518.911202599993,space,0,0.24352500005625188,None,518.9116782000056,519.4261820999673,520.4250239999965,520.4092459999956,,,,,,,,,,000,002,2025-05-03_15h55.21.560,Cued GoNogo Task,2024.2.4,60.01205041367239,2025-05-03 15h55.36.068443 +0200,
block/CondBlock2.xlsx,You are about to start a block of type 2 trials.,8,8,0,Go,Go,0.13,0.2,0.05,space,blue,vertical,space,133.9103539000498,None,space,1,0.25000010000076145,None,,,,0,1,1,1,0,8,8,8,520.4250239999965,,,,,,,,,,,,,,,,520.4095262000337,520.4250239999965,521.1247158999322,521.1247158999322,521.6240570000373,521.6079025999643,521.6082689999603,521.6240570000373,521.7573738000356,521.9405735000037,521.9405735000037,522.1925846999511,space,1,0.25000010000076145,None,522.1964012000244,522.7064820999512,523.7057594000362,523.6896453000372,,,,,,,,,,000,002,2025-05-03_15h55.21.560,Cued GoNogo Task,2024.2.4,60.01205041367239,2025-05-03 15h55.36.068443 +0200,
block/CondBlock2.xlsx,You are about to start a block of type 2 trials.,9,9,0,Go,Go,0.43,0.2,0.05,space,green,vertical,space,133.9103539000498,None,space,1,0.3015110999112949,None,,,,0,1,1,1,0,9,9,9,523.7057594000362,,,,,,,,,,,,,,,,523.6898879000219,523.7057594000362,524.4050514999544,524.4050514999544,524.9047594999429,524.8885558999609,524.8891071999678,524.9047594999429,525.3377233999781,525.5376240999904,525.5376240999904,525.8549127000151,space,1,0.3015110999112949,None,525.860214299988,526.3703352999873,527.3695335999364,527.353599700029,,,,,,,,,,000,002,2025-05-03_15h55.21.560,Cued GoNogo Task,2024.2.4,60.01205041367239,2025-05-03 15h55.36.068443 +0200,
block/CondBlock2.xlsx,You are about to start a block of type 2 trials.,10,10,0,Go,Go,0.14,0.2,0.05,space,green,vertical,space,133.9103539000498,None,space,1,0.2578878999920562,None,,,,0,1,1,1,0,10,10,10,527.3695335999364,,,,,,,,,,,,,,,,527.3538790999446,527.3695335999364,528.0689996000146,528.0689996000146,528.5682924999855,528.5526437000372,528.5532976000104,528.5682924999855,528.7181442999281,528.9012657999992,528.9012657999992,529.1690687999362,space,1,0.2578878999920562,None,529.1736307999818,529.6840477000223,530.6832213000162,530.6676454999251,,,,,,,,,,000,002,2025-05-03_15h55.21.560,Cued GoNogo Task,2024.2.4,60.01205041367239,2025-05-03 15h55.36.068443 +0200,
block/CondBlock2.xlsx,You are about to start a block of type 2 trials.,11,11,0,Go,Go,0.27,0.2,0.05,space,green,vertical,space,133.9103539000498,None,space,1,0.3067747999448329,None,,,,0,1,1,1,0,11,11,11,530.6832213000162,,,,,,,,,,,,,,,,530.6679294999922,530.6832213000162,531.3827609999571,531.3827609999571,531.8823107000208,531.8664362999843,531.8670151999686,531.8823107000208,532.1654716000194,532.3488037999487,532.3488037999487,532.666334199952,space,1,0.3067747999448329,None,532.6709425000008,533.1810629999964,534.180553299957,534.1644760000054,,,,,,,,,,000,002,2025-05-03_15h55.21.560,Cued GoNogo Task,2024.2.4,60.01205041367239,2025-05-03 15h55.36.068443 +0200,
block/CondBlock2.xlsx,You are about to start a block of type 2 trials.,12,12,0,Go,Go,0.3,0.05,0.2,space,green,horizontal,space,133.9103539000498,None,space,1,0.3273212000494823,None,,,,0,1,1,1,0,12,12,12,534.180553299957,,,,,,,,,,,,,,,,534.1647962999996,534.180553299957,534.8797104000114,534.8797104000114,535.3794194000075,535.363624199992,535.3642215,535.3794194000075,535.6792475000257,535.8791685999604,535.8791685999604,536.2138873999938,space,1,0.3273212000494823,None,536.2193117999705,536.7282798000379,537.727457699948,537.712201999966,,,,,,,,,,000,002,2025-05-03_15h55.21.560,Cued GoNogo Task,2024.2.4,60.01205041367239,2025-05-03 15h55.36.068443 +0200,
block/CondBlock2.xlsx,You are about to start a block of type 2 trials.,13,13,0,Go,Go,0.18,0.2,0.05,space,blue,vertical,space,133.9103539000498,None,space,1,0.26597760000731796,None,,,,0,1,1,1,0,13,13,13,537.727457699948,,,,,,,,,,,,,,,,537.7126464999747,537.727457699948,538.4268537999596,538.4268537999596,538.9265516999876,538.9104434000328,538.9109332000371,538.9265516999876,539.1097073999699,539.3096060999669,539.3096060999669,539.5782550999429,space,1,0.26597760000731796,None,539.5823527999455,540.0923359999433,541.0914596000221,541.0755438000197,,,,,,,,,,000,002,2025-05-03_15h55.21.560,Cued GoNogo Task,2024.2.4,60.01205041367239,2025-05-03 15h55.36.068443 +0200,
block/CondBlock2.xlsx,You are about to start a block of type 2 trials.,14,14,0,Go,Go,0.13,0.2,0.05,space,green,vertical,space,133.9103539000498,None,space,1,0.3913268999895081,None,,,,0,1,1,1,0,14,14,14,541.0914596000221,,,,,,,,,,,,,,,,541.0758187000174,541.0914596000221,541.7908768999623,541.7908768999623,542.2904084000038,542.27453960001,542.2753155999817,542.2904084000038,542.4236001999816,542.6236036999617,542.6236036999617,543.0241495999508,space,1,0.3913268999895081,None,543.0275359000079,543.539431000012,,544.5387098999927,,,,,,,,,,000,002,2025-05-03_15h55.21.560,Cued GoNogo Task,2024.2.4,60.01205041367239,2025-05-03 15h55.36.068443 +0200,
block/CondBlock2.xlsx,You are about to start a block of type 2 trials.,15,15,0,Go,Go,0.18,0.2,0.05,space,blue,vertical,space,133.9103539000498,None,space,1,0.33552599989343435,None,,,,0,1,1,1,0,15,15,15,544.5550501999678,,,,,,,,,,,,,,,,544.5389491999522,544.5550501999678,545.2381425999338,545.2546845999314,545.7375517999753,545.7220733999275,545.7230549999513,545.7375517999753,545.9207431999967,546.103888600017,546.103888600017,546.4550325999735,space,1,0.33552599989343435,None,546.459956799983,546.970166199957,547.96917019994,547.9535664999858,,,,,,,,,,000,002,2025-05-03_15h55.21.560,Cued GoNogo Task,2024.2.4,60.01205041367239,2025-05-03 15h55.36.068443 +0200,
block/CondBlock2.xlsx,You are about to start a block of type 2 trials.,16,16,0,Go,Go,0.24,0.2,0.05,space,green,vertical,space,133.9103539000498,None,space,1,0.31679670000448823,None,,,,0,1,1,1,0,16,16,16,547.96917019994,,,,,,,,,,,,,,,,547.9538728999905,547.96917019994,548.6686655000085,548.6686655000085,549.1679617000045,549.1518689999357,549.1524215999525,549.1679617000045,549.4178764999378,549.6012015999295,549.6012015999295,549.9351515999297,space,1,0.31679670000448823,None,549.9395144999726,550.4505578000098,,551.4497341000242,,,,,,,,,,000,002,2025-05-03_15h55.21.560,Cued GoNogo Task,2024.2.4,60.01205041367239,2025-05-03 15h55.36.068443 +0200,
block/CondBlock2.xlsx,You are about to start a block of type 2 trials.,17,17,0,Go,Go,0.26,0.2,0.05,space,blue,vertical,space,133.9103539000498,None,space,1,0.3167084000306204,None,,,,0,1,1,1,0,17,17,17,551.4663330999902,,,,,,,,,,,,,,,,551.4499671999365,551.4663330999902,552.1489838999696,552.1656199999852,552.6485010000179,552.6324941000203,552.6330354999518,552.6485010000179,552.9150447000284,553.0982016000198,553.0982016000198,553.4172942999285,space,1,0.3167084000306204,None,553.4177753999829,553.931074699969,554.929931599996,554.9145550000248,,,,,,,,,,000,002,2025-05-03_15h55.21.560,Cued GoNogo Task,2024.2.4,60.01205041367239,2025-05-03 15h55.36.068443 +0200,
block/CondBlock2.xlsx,You are about to start a block of type 2 trials.,18,18,0,Go,Go,0.1,0.05,0.2,space,blue,horizontal,space,133.9103539000498,None,space,1,0.29755240003578365,None,,,,0,1,1,1,0,18,18,18,554.929931599996,,,,,,,,,,,,,,,,554.9150079999818,554.929931599996,555.6293839999707,555.6293839999707,556.1291516999481,556.1135801000055,556.1144799999893,556.1291516999481,556.2288664999651,556.4287790999515,556.4287790999515,556.7302905999823,space,1,0.29755240003578365,None,556.7347936999286,557.2450578999706,558.2439365999307,558.2281188999768,,,,,,,,,,000,002,2025-05-03_15h55.21.560,Cued GoNogo Task,2024.2.4,60.01205041367239,2025-05-03 15h55.36.068443 +0200,
block/CondBlock2.xlsx,You are about to start a block of type 2 trials.,19,19,0,Go,Go,0.46,0.2,0.05,space,blue,vertical,space,133.9103539000498,None,space,1,0.2975499000167474,None,,,,0,1,1,1,0,19,19,19,558.2439365999307,,,,,,,,,,,,,,,,558.228397400002,558.2439365999307,558.9434091999428,558.9434091999428,559.4430745999562,559.4271481999895,559.4277480000164,559.4430745999562,559.9092726999661,560.0926971000154,560.0926971000154,560.3941045999527,space,1,0.2975499000167474,None,560.3945107000181,560.9085032999283,561.9075276999502,561.8916122999508,,,,,,,,,,000,002,2025-05-03_15h55.21.560,Cued GoNogo Task,2024.2.4,60.01205041367239,2025-05-03 15h55.36.068443 +0200,
block/CondBlock2.xlsx,You are about to start a block of type 2 trials.,20,20,0,Go,Go,0.3,0.05,0.2,space,blue,horizontal,space,133.9103539000498,None,space,1,0.25588289997540414,None,,,,0,1,1,1,0,20,20,20,561.9075276999502,,,,,,,,,,,,,,,,561.8919146999251,561.9075276999502,562.6070614999626,562.6070614999626,563.1065510000335,563.0906513000373,563.0913105999352,563.1065510000335,563.4064673000248,563.606382500031,563.606382500031,563.8739781000186,space,1,0.25588289997540414,None,563.8774534999393,564.3888300999533,565.3879518000176,565.372014899971,,,,,,,,,,000,002,2025-05-03_15h55.21.560,Cued GoNogo Task,2024.2.4,60.01205041367239,2025-05-03 15h55.36.068443 +0200,
block/CondBlock2.xlsx,You are about to start a block of type 2 trials.,21,21,0,Go,Go,0.23,0.05,0.2,space,green,horizontal,space,133.9103539000498,None,space,1,0.2751964000053704,None,,,,0,1,1,1,0,21,21,21,565.3879518000176,,,,,,,,,,,,,,,,565.3722476999974,565.3879518000176,566.0874927999685,566.0874927999685,566.5874103000388,566.5711293999339,566.5716991999652,566.5874103000388,566.8202231000178,567.0036092000082,567.0036092000082,567.2877638000064,space,1,0.2751964000053704,None,567.2921417999314,567.802842300036,568.8019125999417,568.7858558000298,,,,,,,,,,000,002,2025-05-03_15h55.21.560,Cued GoNogo Task,2024.2.4,60.01205041367239,2025-05-03 15h55.36.068443 +0200,
block/CondBlock2.xlsx,You are about to start a block of type 2 trials.,22,22,0,Go,Go,0.19,0.2,0.05,space,green,vertical,space,133.9103539000498,None,space,1,0.3661747999722138,None,,,,0,1,1,1,0,22,22,22,568.8019125999417,,,,,,,,,,,,,,,,568.7861049999483,568.8019125999417,569.5012044999748,569.5012044999748,570.0010064999806,569.9854849999538,569.9861311999848,570.0010064999806,570.2006507000187,570.3841461000266,570.3841461000266,570.7529626999749,space,1,0.3661747999722138,None,570.7573341999669,571.2666174999904,572.2656230999855,572.2502612000098,,,,,,,,,,000,002,2025-05-03_15h55.21.560,Cued GoNogo Task,2024.2.4,60.01205041367239,2025-05-03 15h55.36.068443 +0200,
block/CondBlock2.xlsx,You are about to start a block of type 2 trials.,23,23,0,NoGo,NoGo,0.41,0.2,0.05,none,blue,vertical,space,133.9103539000498,None,space,0,0.2951690999325365,None,,,,0,1,1,1,0,23,23,23,572.2656230999855,,,,,,,,,,,,,,,,572.2507918999763,572.2656230999855,572.9653454000363,572.9653454000363,573.4648610999575,573.4487594999373,573.449407499982,573.4648610999575,573.8812433999265,574.0641946999822,574.0641946999822,574.3653170999605,space,0,0.2951690999325365,None,574.3702421999769,574.8805323999841,,575.87962589995,,,,,,,,,,000,002,2025-05-03_15h55.21.560,Cued GoNogo Task,2024.2.4,60.01205041367239,2025-05-03 15h55.36.068443 +0200,
block/CondBlock2.xlsx,You are about to start a block of type 2 trials.,24,24,0,Go,Go,0.17,0.2,0.05,space,blue,vertical,space,133.9103539000498,None,space,1,0.44871260004583746,None,,,,0,1,1,1,0,24,24,24,575.8962514000013,,,,,,,,,,,,,,,,575.8799531999975,575.8962514000013,576.5788039999316,576.5956372999353,577.0785272000358,577.0629587000003,577.0640249999706,577.0785272000358,577.261702299933,577.4449009000091,577.4449009000091,577.8956326999469,space,1,0.44871260004583746,None,577.8985201999312,578.4106173999608,579.4099790999899,579.3940164999804,,,,,,,,,,000,002,2025-05-03_15h55.21.560,Cued GoNogo Task,2024.2.4,60.01205041367239,2025-05-03 15h55.36.068443 +0200,
block/CondBlock2.xlsx,You are about to start a block of type 2 trials.,25,25,0,Go,Go,0.27,0.05,0.2,space,blue,horizontal,space,133.9103539000498,None,space,1,0.25119740003719926,None,,,,0,1,1,1,0,25,25,25,579.4099790999899,,,,,,,,,,,,,,,,579.3942610999802,579.4099790999899,580.1094066000078,580.1094066000078,580.609014699934,580.5932389999507,580.5941313999938,580.609014699934,580.8921387000009,581.075195799931,581.075195799931,581.3430593999801,space,1,0.25119740003719926,None,581.3472880999325,581.8579879000317,582.8568729999242,582.8413538000314,,,,,,,,,,000,002,2025-05-03_15h55.21.560,Cued GoNogo Task,2024.2.4,60.01205041367239,2025-05-03 15h55.36.068443 +0200,
block/CondBlock2.xlsx,You are about to start a block of type 2 trials.,26,26,0,Go,Go,0.26,0.05,0.2,space,green,horizontal,space,133.9103539000498,None,space,1,0.24459819996263832,None,,,,0,1,1,1,0,26,26,26,582.8568729999242,,,,,,,,,,,,,,,,582.8416797999525,582.8568729999242,583.5564974999288,583.5564974999288,584.0561280000256,584.0403372999281,584.04101549997,584.0561280000256,584.3224550000159,584.5055554999271,584.5055554999271,584.7568853999255,space,1,0.24459819996263832,None,584.7602858999744,585.271944200038,586.2708828999894,586.2550746999914,,,,,,,,,,000,002,2025-05-03_15h55.21.560,Cued GoNogo Task,2024.2.4,60.01205041367239,2025-05-03 15h55.36.068443 +0200,
block/CondBlock2.xlsx,You are about to start a block of type 2 trials.,27,27,0,Go,Go,0.22,0.2,0.05,space,green,vertical,space,133.9103539000498,None,space,1,0.28031970001757145,None,,,,0,1,1,1,0,27,27,27,586.2708828999894,,,,,,,,,,,,,,,,586.2553693000227,586.2708828999894,586.970220200019,586.970220200019,587.469866600004,587.4538013000274,587.4543540999293,587.469866600004,587.7031023999443,587.8862975999946,587.8862975999946,588.1705016000196,space,1,0.28031970001757145,None,588.1751081999391,588.6857701999834,589.6848090999993,589.6692444999935,,,,,,,,,,000,002,2025-05-03_15h55.21.560,Cued GoNogo Task,2024.2.4,60.01205041367239,2025-05-03 15h55.36.068443 +0200,
block/CondBlock2.xlsx,You are about to start a block of type 2 trials.,28,28,0,Go,Go,0.19,0.05,0.2,space,blue,horizontal,space,133.9103539000498,None,space,1,0.22782379994168878,None,,,,0,1,1,1,0,28,28,28,589.6848090999993,,,,,,,,,,,,,,,,589.6695994000183,589.6848090999993,590.384039000026,590.384039000026,590.8838590999367,590.8681232000235,590.8688210999826,590.8838590999367,591.083542300039,591.2667387999827,591.2667387999827,591.5009702999378,space,1,0.22782379994168878,None,591.5045907000313,592.0161115999799,593.0152484999271,592.9992581999395,,,,,,,,,,000,002,2025-05-03_15h55.21.560,Cued GoNogo Task,2024.2.4,60.01205041367239,2025-05-03 15h55.36.068443 +0200,
block/CondBlock2.xlsx,You are about to start a block of type 2 trials.,29,29,0,Go,Go,0.18,0.05,0.2,space,blue,horizontal,space,133.9103539000498,None,space,1,0.22528130002319813,None,,,,0,1,1,1,0,29,29,29,593.0152484999271,,,,,,,,,,,,,,,,592.9995463000378,593.0152484999271,593.714838200016,593.714838200016,594.2143604999874,594.198251200025,594.1987553000217,594.2143604999874,594.3975174999796,594.5807177999523,594.5807177999523,594.8148314999416,space,1,0.22528130002319813,None,594.8178413999267,595.3303420000011,,596.3294309999328,,,,,,,,,,000,002,2025-05-03_15h55.21.560,Cued GoNogo Task,2024.2.4,60.01205041367239,2025-05-03 15h55.36.068443 +0200,
block/CondBlock2.xlsx,You are about to start a block of type 2 trials.,30,30,0,NoGo,NoGo,0.23,0.2,0.05,none,blue,vertical,space,133.9103539000498,None,space,0,0.2792133000912145,None,,,,0,1,1,1,0,30,30,30,596.3459981000051,,,,,,,,,,,,,,,,596.3296973999823,596.3459981000051,597.0287376999622,597.045694099972,597.5283149000024,597.5127618999686,597.5136108000297,597.5283149000024,597.7613799999235,597.9443747999612,597.9443747999612,598.2288527999772,space,0,0.2792133000912145,None,598.2331773999613,598.7439897999866,599.7430965999374,599.7274241999257,,,,,,,,,,000,002,2025-05-03_15h55.21.560,Cued GoNogo Task,2024.2.4,60.01205041367239,2025-05-03 15h55.36.068443 +0200,
block/CondBlock2.xlsx,You are about to start a block of type 2 trials.,31,31,0,Go,Go,0.43,0.2,0.05,space,green,vertical,space,133.9103539000498,None,space,1,0.23250990000087768,None,,,,0,1,1,1,0,31,31,31,599.7430965999374,,,,,,,,,,,,,,,,599.727761499933,599.7430965999374,600.4426217,600.4426217,600.9422776999418,600.9266862999648,600.9272682999726,600.9422776999418,601.3750037000282,601.558263599989,601.558263599989,601.7932919999585,space,1,0.23250990000087768,None,601.796728999936,602.3075415999629,603.3068852999713,603.2907205999363,,,,,,,,,,000,002,2025-05-03_15h55.21.560,Cued GoNogo Task,2024.2.4,60.01205041367239,2025-05-03 15h55.36.068443 +0200,
block/CondBlock2.xlsx,You are about to start a block of type 2 trials.,32,32,0,Go,Go,0.13,0.05,0.2,space,blue,horizontal,space,133.9103539000498,None,space,1,0.28856700006872416,None,,,,0,1,1,1,0,32,32,32,603.3068852999713,,,,,,,,,,,,,,,,603.2909519999521,603.3068852999713,604.0063347000396,604.0063347000396,604.505908299936,604.4901733000297,604.4907933999784,604.505908299936,604.6392457999755,604.8224657999817,604.8224657999817,605.1230689999647,space,1,0.28856700006872416,None,605.1271266000113,605.6382604000391,606.6375802999828,606.6215949000325,,,,,,,,,,000,002,2025-05-03_15h55.21.560,Cued GoNogo Task,2024.2.4,60.01205041367239,2025-05-03 15h55.36.068443 +0200,
block/CondBlock2.xlsx,You are about to start a block of type 2 trials.,33,33,0,Go,Go,0.45,0.05,0.2,space,green,horizontal,space,133.9103539000498,None,space,1,0.30383789993356913,None,,,,0,1,1,1,0,33,33,33,606.6375802999828,,,,,,,,,,,,,,,,606.6218715999275,606.6375802999828,607.3370565000223,607.3370565000223,607.8365299999714,607.8206809000112,607.8214512999402,607.8365299999714,608.2860927999718,608.4859916999703,608.4859916999703,608.8034567999421,space,1,0.30383789993356913,None,608.8063222999917,609.3185873000184,610.3177218999481,610.301577599952,,,,,,,,,,000,002,2025-05-03_15h55.21.560,Cued GoNogo Task,2024.2.4,60.01205041367239,2025-05-03 15h55.36.068443 +0200,
block/CondBlock2.xlsx,You are about to start a block of type 2 trials.,34,34,0,Go,Go,0.14,0.2,0.05,space,blue,vertical,space,133.9103539000498,None,space,1,0.23602609999943525,None,,,,0,1,1,1,0,34,34,34,610.3177218999481,,,,,,,,,,,,,,,,610.3018691999605,610.3177218999481,611.0174155000132,611.0174155000132,611.5167140000267,611.5007439999608,611.5013487000251,611.5167140000267,611.6667519999901,611.8499262999976,611.8499262999976,612.1007763999514,space,1,0.23602609999943525,None,612.1048614999745,612.6159576999489,613.6150545999408,613.5993702999549,,,,,,,,,,000,002,2025-05-03_15h55.21.560,Cued GoNogo Task,2024.2.4,60.01205041367239,2025-05-03 15h55.36.068443 +0200,
block/CondBlock2.xlsx,You are about to start a block of type 2 trials.,35,35,0,Go,Go,0.11,0.2,0.05,space,blue,vertical,space,133.9103539000498,None,space,1,0.24519260006491095,None,,,,0,1,1,1,0,35,35,35,613.6150545999408,,,,,,,,,,,,,,,,613.5996316999663,613.6150545999408,614.3145077000372,614.3145077000372,614.8141535000177,614.7982175999787,614.7987550999969,614.8141535000177,614.9306481999811,615.1138914999319,615.1138914999319,615.3648821000243,space,1,0.24519260006491095,None,615.3688442999264,615.8800338000292,616.879135599942,616.8635595999658,,,,,,,,,,000,002,2025-05-03_15h55.21.560,Cued GoNogo Task,2024.2.4,60.01205041367239,2025-05-03 15h55.36.068443 +0200,
block/CondBlock2.xlsx,You are about to start a block of type 2 trials.,36,36,0,Go,Go,0.15,0.05,0.2,space,green,horizontal,space,133.9103539000498,None,space,1,0.2102362000150606,None,,,,0,1,1,1,0,36,36,36,616.879135599942,,,,,,,,,,,,,,,,616.8638532999903,616.879135599942,617.578581299982,617.578581299982,618.078041599947,618.061937600025,618.0625167000107,618.078041599947,618.22806819994,618.427706599934,618.427706599934,618.6457840999356,space,1,0.2102362000150606,None,618.6510570000391,619.1606436999282,620.1596654999303,620.1437710999744,,,,,,,,,,000,002,2025-05-03_15h55.21.560,Cued GoNogo Task,2024.2.4,60.01205041367239,2025-05-03 15h55.36.068443 +0200,
block/CondBlock2.xlsx,You are about to start a block of type 2 trials.,37,37,0,Go,Go,0.15,0.2,0.05,space,green,vertical,space,133.9103539000498,None,space,1,0.21720159996766597,None,,,,0,1,1,1,0,37,37,37,620.1596654999303,,,,,,,,,,,,,,,,620.14402170002,620.1596654999303,620.859241600032,620.859241600032,621.358912799973,621.3427683999762,621.3433732999256,621.358912799973,621.5085970000364,621.7085356999887,621.7085356999887,621.9433611999266,space,1,0.21720159996766597,None,621.9480933999876,622.4577834999654,623.4568449000362,623.4411967999768,,,,,,,,,,000,002,2025-05-03_15h55.21.560,Cued GoNogo Task,2024.2.4,60.01205041367239,2025-05-03 15h55.36.068443 +0200,
block/CondBlock2.xlsx,You are about to start a block of type 2 trials.,38,38,0,NoGo,NoGo,0.14,0.2,0.05,none,green,vertical,space,133.9103539000498,None,space,0,0.24066159990616143,None,,,,0,1,1,1,0,38,38,38,623.4568449000362,,,,,,,,,,,,,,,,623.4415130999405,623.4568449000362,624.1562434999505,624.1562434999505,624.6561233999673,624.6401961999945,624.6408962999703,624.6561233999673,624.8057715999894,624.9891199999256,624.9891199999256,625.2399725000141,space,0,0.24066159990616143,None,625.2442839000141,625.7550963999238,626.7544371000258,626.7382614000235,,,,,,,,,,000,002,2025-05-03_15h55.21.560,Cued GoNogo Task,2024.2.4,60.01205041367239,2025-05-03 15h55.36.068443 +0200,
block/CondBlock2.xlsx,You are about to start a block of type 2 trials.,39,39,0,Go,Go,0.46,0.2,0.05,space,green,vertical,space,133.9103539000498,None,space,1,0.3643519999459386,None,,,,0,1,1,1,0,39,39,39,626.7544371000258,,,,,,,,,,,,,,,,626.7384984999662,626.7544371000258,627.4537614999572,627.4537614999572,627.9532640000107,627.9376281999284,627.9382799000014,627.9532640000107,628.4196870999876,628.602747399942,628.602747399942,628.9703527999809,space,1,0.3643519999459386,None,628.9745289999992,629.4853567000246,630.4844618999632,630.4686142000137,,,,,,,,,,000,002,2025-05-03_15h55.21.560,Cued GoNogo Task,2024.2.4,60.01205041367239,2025-05-03 15h55.36.068443 +0200,
block/CondBlock2.xlsx,You are about to start a block of type 2 trials.,40,40,0,Go,Go,0.5,0.05,0.2,space,blue,horizontal,space,133.9103539000498,None,space,1,0.3274978999979794,None,,,,0,1,1,1,0,40,40,40,630.4844618999632,,,,,,,,,,,,,,,,630.4689080000389,630.4844618999632,631.183946599951,631.183946599951,631.6835733000189,631.6678238000022,631.6685684999684,631.6835733000189,632.1832376000239,632.3829436999513,632.3829436999513,632.7172216000035,space,1,0.3274978999979794,None,632.722871499951,633.2322915999684,634.2314113000175,634.2157021999592,,,,,,,,,,000,002,2025-05-03_15h55.21.560,Cued GoNogo Task,2024.2.4,60.01205041367239,2025-05-03 15h55.36.068443 +0200,
block/CondBlock2.xlsx,You are about to start a block of type 2 trials.,41,41,0,Go,Go,0.16,0.05,0.2,space,green,horizontal,space,133.9103539000498,None,space,1,0.35395210003480315,None,,,,0,1,1,1,0,41,41,41,634.2314113000175,,,,,,,,,,,,,,,,634.21601069998,634.2314113000175,634.9308311999775,634.9308311999775,635.4306220000144,635.4142383999424,635.4147100999253,635.4306220000144,635.5969124999829,635.7802514999639,635.7802514999639,636.1480716000078,space,1,0.35395210003480315,None,636.152679599938,636.6626894000219,637.6619567000307,637.6463852999732,,,,,,,,,,000,002,2025-05-03_15h55.21.560,Cued GoNogo Task,2024.2.4,60.01205041367239,2025-05-03 15h55.36.068443 +0200,
block/CondBlock2.xlsx,You are about to start a block of type 2 trials.,42,42,0,Go,Go,0.24,0.2,0.05,space,green,vertical,space,133.9103539000498,None,space,1,0.30495080002583563,None,,,,0,1,1,1,0,42,42,42,637.6619567000307,,,,,,,,,,,,,,,,637.6467650999548,637.6619567000307,638.3614040999673,638.3614040999673,638.8609476999845,638.8451343999477,638.845852999948,638.8609476999845,639.110664100037,639.293856699951,639.293856699951,639.6116286999313,space,1,0.30495080002583563,None,639.6165496000322,640.1264940999681,641.1256532999687,641.1100230999291,,,,,,,,,,000,002,2025-05-03_15h55.21.560,Cued GoNogo Task,2024.2.4,60.01205041367239,2025-05-03 15h55.36.068443 +0200,
block/CondBlock2.xlsx,You are about to start a block of type 2 trials.,43,43,0,NoGo,NoGo,0.17,0.2,0.05,none,blue,vertical,space,133.9103539000498,None,space,0,0.2670730999670923,None,,,,0,1,1,1,0,43,43,43,641.1256532999687,,,,,,,,,,,,,,,,641.1103460999439,641.1256532999687,641.8252445999533,641.8252445999533,642.3247032000218,642.3084793000016,642.3089331999654,642.3247032000218,642.5079131999519,642.6910259999568,642.6910259999568,642.9754787000129,space,0,0.2670730999670923,None,642.9807895999402,643.4904246999649,644.4895697999746,644.4737326999893,,,,,,,,,,000,002,2025-05-03_15h55.21.560,Cued GoNogo Task,2024.2.4,60.01205041367239,2025-05-03 15h55.36.068443 +0200,
