Block,blockMsg,thisN,thisTrialN,thisRepN,CueType,StimType,CueTime,Stim_Height,Stim_Width,CRESP,Color,Orientation,key_resp_2.keys,key_resp_2.rt,key_resp_2.duration,Key_Resp.keys,Key_Resp.corr,Key_Resp.rt,Key_Resp.duration,key_resp_3.keys,key_resp_3.rt,key_resp_3.duration,Blocks.thisRepN,Blocks.thisTrialN,Blocks.thisN,Blocks.thisIndex,Trials.thisRepN,Trials.thisTrialN,Trials.thisN,Trials.thisIndex,thisRow.t,notes,TaskIntro.started,fixation.started,key_resp.started,TaskIntro.stopped,key_resp.keys,key_resp.rt,key_resp.duration,BlockStart.started,BlockStart_Msg.started,key_resp_2.started,BlockStart.stopped,Blocks.key_resp_2.keys,Blocks.key_resp_2.rt,Blocks.key_resp_2.duration,Fixation.started,FixationPhase.started,Blank.started,FixationPhase.stopped,Blank.stopped,Fixation.stopped,Trial.started,Cue.started,Cue.stopped,GoNogo_Stim.started,Key_Resp.started,Trial.stopped,Trials.Key_Resp.keys,Trials.Key_Resp.corr,Trials.Key_Resp.rt,Trials.Key_Resp.duration,Feedback.started,Feedback_Present.started,Feedback_Present.stopped,Feedback.stopped,GoNogo_Stim.stopped,Key_Resp.stopped,BlockEnd.started,BlockEnd_Msg.started,key_resp_3.started,BlockEnd.stopped,Blocks.key_resp_3.keys,Blocks.key_resp_3.rt,Blocks.key_resp_3.duration,TaskEnd.started,ThankYou.started,key_resp_4.started,TaskEnd.stopped,key_resp_4.keys,key_resp_4.rt,key_resp_4.duration,participant,session,date,expName,psychopyVersion,frameRate,expStart,
,,,,,,,,,,,,,,,,,,,,,,,,,,,,,,,,,0.0015053999959491193,0.0037039999733678997,0.0037039999733678997,20.11855930002639,space,20.098923500045203,None,,,,,,,,,,,,,,,,,,,,,,,,,,,,,,,,,,,,,,,,,,,,002,002,2025-04-27_15h45.02.276,Cued GoNogo Task,2024.2.4,59.97123779177414,2025-04-27 15h45.13.713418 +0200,
block/CondBlock1.xlsx,You are about to start a block of type 1 trials.,0,0,0,Go,Go,0.13,0.05,0.2,space,blue,horizontal,space,2.018521999998484,None,space,1,0.2719926999998279,None,,,,0,0,0,0,0,0,0,0,22.22698879998643,,,,,,,,,20.129163299978245,20.13184490002459,20.13184490002459,22.163851200020872,space,2.018521999998484,None,22.223580899997614,22.22698879998643,22.878069899976254,22.928029500006232,23.377580299973488,23.361877700022887,23.36262909998186,23.377580299973488,23.510664500005078,23.694163299980573,23.694163299980573,23.97837199998321,space,1,0.2719926999998279,None,23.989841200003866,24.49332060001325,25.49256049998803,25.47662670002319,,,,,,,,,,,,,,,,,002,002,2025-04-27_15h45.02.276,Cued GoNogo Task,2024.2.4,59.97123779177414,2025-04-27 15h45.13.713418 +0200,
block/CondBlock1.xlsx,You are about to start a block of type 1 trials.,1,1,0,NoGo,NoGo,0.43,0.05,0.2,none,blue,horizontal,space,2.018521999998484,None,None,1,,,,,,0,0,0,0,0,1,1,1,25.49256049998803,,,,,,,,,,,,,,,,25.476918799977284,25.49256049998803,26.192073400015943,26.192073400015943,26.69144189998042,26.675863899989054,26.676752100000158,26.69144189998042,27.124405800015666,27.307554300001357,27.307554300001357,27.791098800022155,None,1,,,27.792959099984728,28.290036400023382,29.28928700002143,29.27363950002473,27.807062399981078,27.807062399981078,,,,,,,,,,,,,,,002,002,2025-04-27_15h45.02.276,Cued GoNogo Task,2024.2.4,59.97123779177414,2025-04-27 15h45.13.713418 +0200,
block/CondBlock1.xlsx,You are about to start a block of type 1 trials.,2,2,0,Go,Go,0.12,0.2,0.05,space,blue,vertical,space,2.018521999998484,None,space,1,0.3219787999987602,None,,,,0,0,0,0,0,2,2,2,29.28928700002143,,,,,,,,,,,,,,,,29.273952800023835,29.306006599974353,30.005718900007196,30.005718900007196,30.505026799975894,30.48918259999482,30.490122199989855,30.505026799975894,30.63808439997956,30.82144149998203,30.82144149998203,31.156016400025692,space,1,0.3219787999987602,None,31.162179799983278,31.670595499977935,32.66994659998454,32.65394739998737,,,,,,,,,,,,,,,,,002,002,2025-04-27_15h45.02.276,Cued GoNogo Task,2024.2.4,59.97123779177414,2025-04-27 15h45.13.713418 +0200,
block/CondBlock1.xlsx,You are about to start a block of type 1 trials.,3,3,0,NoGo,NoGo,0.18,0.2,0.05,none,green,vertical,space,2.018521999998484,None,None,1,,,,,,0,0,0,0,0,3,3,3,32.66994659998454,,,,,,,,,,,,,,,,32.654232600005344,32.66994659998454,33.36932190001244,33.36932190001244,33.86889440001687,33.85291449999204,33.85360019997461,33.86889440001687,34.05211300001247,34.23540150001645,34.23540150001645,34.719012500019744,None,1,,,34.72165040002437,35.234419899992645,36.233682200021576,36.21816480002599,34.73475280002458,34.73475280002458,,,,,,,,,,,,,,,002,002,2025-04-27_15h45.02.276,Cued GoNogo Task,2024.2.4,59.97123779177414,2025-04-27 15h45.13.713418 +0200,
block/CondBlock1.xlsx,You are about to start a block of type 1 trials.,4,4,0,Go,Go,0.24,0.05,0.2,space,green,horizontal,space,2.018521999998484,None,space,1,0.2604323999839835,None,,,,0,0,0,0,0,4,4,4,36.233682200021576,,,,,,,,,,,,,,,,36.218600400025025,36.233682200021576,36.93299860000843,36.93299860000843,37.43253669998376,37.4165384999942,37.41715100000147,37.43253669998376,37.68250629998511,37.86543080001138,37.86543080001138,38.13401320000412,space,1,0.2604323999839835,None,38.140841700020246,38.64831860002596,39.64744079997763,39.63180500001181,,,,,,,,,,,,,,,,,002,002,2025-04-27_15h45.02.276,Cued GoNogo Task,2024.2.4,59.97123779177414,2025-04-27 15h45.13.713418 +0200,
block/CondBlock1.xlsx,You are about to start a block of type 1 trials.,5,5,0,Go,Go,0.21,0.05,0.2,space,blue,horizontal,space,2.018521999998484,None,space,1,0.2638276999932714,None,,,,0,0,0,0,0,5,5,5,39.64744079997763,,,,,,,,,,,,,,,,39.63218630000483,39.64744079997763,40.346744999988005,40.346744999988005,40.84670160000678,40.83039830002235,40.83093609998468,40.84670160000678,41.06298470002366,41.2463636000175,41.2463636000175,41.51353080000263,space,1,0.2638276999932714,None,41.51603419997264,42.02905269997427,,43.0284762000083,,,,,,,,,,,,,,,,,002,002,2025-04-27_15h45.02.276,Cued GoNogo Task,2024.2.4,59.97123779177414,2025-04-27 15h45.13.713418 +0200,
block/CondBlock1.xlsx,You are about to start a block of type 1 trials.,6,6,0,Go,Go,0.11,0.2,0.05,space,blue,vertical,space,2.018521999998484,None,space,1,0.3921424000291154,None,,,,0,0,0,0,0,6,6,6,43.04501130001154,,,,,,,,,,,,,,,,43.02876279997872,43.04501130001154,43.727358900010586,43.74424510000972,44.2269017000217,44.21163769997656,44.21240389999002,44.2269017000217,44.343708999978844,44.52678030001698,44.52678030001698,44.92807580000954,space,1,0.3921424000291154,None,44.9345931999851,45.44280969997635,46.4420232999837,46.42610939999577,,,,,,,,,,,,,,,,,002,002,2025-04-27_15h45.02.276,Cued GoNogo Task,2024.2.4,59.97123779177414,2025-04-27 15h45.13.713418 +0200,
block/CondBlock1.xlsx,You are about to start a block of type 1 trials.,7,7,0,Go,Go,0.15,0.2,0.05,space,blue,vertical,space,2.018521999998484,None,space,1,0.24777600000379607,None,,,,0,0,0,0,0,7,7,7,46.4420232999837,,,,,,,,,,,,,,,,46.426413299981505,46.4420232999837,47.141440899984445,47.141440899984445,47.64095819997601,47.625236899999436,47.62592570000561,47.64095819997601,47.79093299998203,47.9907746000099,47.9907746000099,48.24203219998162,space,1,0.24777600000379607,None,48.24687279999489,48.75672130001476,49.756081699975766,49.740299900004175,,,,,,,,,,,,,,,,,002,002,2025-04-27_15h45.02.276,Cued GoNogo Task,2024.2.4,59.97123779177414,2025-04-27 15h45.13.713418 +0200,
block/CondBlock1.xlsx,You are about to start a block of type 1 trials.,8,8,0,NoGo,NoGo,0.3,0.05,0.2,none,blue,horizontal,space,2.018521999998484,None,space,0,0.27206039999146014,None,,,,0,0,0,0,0,8,8,8,49.756081699975766,,,,,,,,,,,,,,,,49.74078860000009,49.756081699975766,50.455311300000176,50.455311300000176,50.9548431999865,50.938956499972846,50.9396407000022,50.9548431999865,51.25472059997264,51.454641700023785,51.454641700023785,51.739122099999804,space,0,0.27206039999146014,None,51.74765350000234,52.253805799991824,53.252899900020566,53.23723919998156,,,,,,,,,,,,,,,,,002,002,2025-04-27_15h45.02.276,Cued GoNogo Task,2024.2.4,59.97123779177414,2025-04-27 15h45.13.713418 +0200,
block/CondBlock1.xlsx,You are about to start a block of type 1 trials.,9,9,0,NoGo,NoGo,0.17,0.05,0.2,none,blue,horizontal,space,2.018521999998484,None,space,0,0.33957390004070476,None,,,,0,0,0,0,0,9,9,9,53.252899900020566,,,,,,,,,,,,,,,,53.237649900023825,53.252899900020566,53.95223980001174,53.95223980001174,54.451949700014666,54.43556210002862,54.43595269997604,54.451949700014666,54.63530070002889,54.818422099982854,54.818422099982854,55.16947139997501,space,0,0.33957390004070476,None,55.169957800011616,55.684448099986184,56.683425099996384,56.66751890000887,,,,,,,,,,,,,,,,,002,002,2025-04-27_15h45.02.276,Cued GoNogo Task,2024.2.4,59.97123779177414,2025-04-27 15h45.13.713418 +0200,
block/CondBlock1.xlsx,You are about to start a block of type 1 trials.,10,10,0,NoGo,NoGo,0.26,0.2,0.05,none,green,vertical,space,2.018521999998484,None,None,1,,,,,,0,0,0,0,0,10,10,10,56.683425099996384,,,,,,,,,,,,,,,,56.667757700022776,56.683425099996384,57.38292990002083,57.38292990002083,57.882411999977194,57.866532500018366,57.86711310001556,57.882411999977194,58.14893219998339,58.33217589999549,58.33217589999549,58.815774800023064,None,1,,,58.81792569998652,59.331372099986766,60.3306009999942,60.314946400001645,58.83176849997835,58.83176849997835,,,,,,,,,,,,,,,002,002,2025-04-27_15h45.02.276,Cued GoNogo Task,2024.2.4,59.97123779177414,2025-04-27 15h45.13.713418 +0200,
block/CondBlock1.xlsx,You are about to start a block of type 1 trials.,11,11,0,Go,Go,0.27,0.05,0.2,space,green,horizontal,space,2.018521999998484,None,space,1,0.41862430004402995,None,,,,0,0,0,0,0,11,11,11,60.3306009999942,,,,,,,,,,,,,,,,60.315340899978764,60.3306009999942,61.029930800024886,61.029930800024886,61.52950120001333,61.51378239999758,61.51452430000063,61.52950120001333,61.812660499999765,61.995927900017705,61.995927900017705,62.429884399985895,space,1,0.41862430004402995,None,62.43429900001502,62.9450516999932,63.9441326999804,63.92818550002994,,,,,,,,,,,,,,,,,002,002,2025-04-27_15h45.02.276,Cued GoNogo Task,2024.2.4,59.97123779177414,2025-04-27 15h45.13.713418 +0200,
block/CondBlock1.xlsx,You are about to start a block of type 1 trials.,12,12,0,Go,Go,0.16,0.2,0.05,space,green,vertical,space,2.018521999998484,None,space,1,0.4414422999834642,None,,,,0,0,0,0,0,12,12,12,63.9441326999804,,,,,,,,,,,,,,,,63.92844609997701,63.9441326999804,64.64358939998783,64.64358939998783,65.14330190001056,65.12766250001732,65.1286063999869,65.14330190001056,65.3099179000128,65.49292089999653,65.49292089999653,65.94376489997376,space,1,0.4414422999834642,None,65.94736230000854,66.45879449998029,67.45812249998562,67.44221569999354,,,,,,,,,,,,,,,,,002,002,2025-04-27_15h45.02.276,Cued GoNogo Task,2024.2.4,59.97123779177414,2025-04-27 15h45.13.713418 +0200,
block/CondBlock1.xlsx,You are about to start a block of type 1 trials.,13,13,0,Go,Go,0.13,0.2,0.05,space,green,vertical,space,2.018521999998484,None,space,1,0.4339206999866292,None,,,,0,0,0,0,0,13,13,13,67.45812249998562,,,,,,,,,,,,,,,,67.44260599999689,67.45812249998562,68.15731669997331,68.15731669997331,68.65705390000949,68.64143780001905,68.64241309999488,68.65705390000949,68.7901925999904,68.97341889998643,68.97341889998643,69.42406510002911,space,1,0.4339206999866292,None,69.4279868999729,69.9224617999862,70.92181349999737,70.90600560000166,,,,,,,,,,,,,,,,,002,002,2025-04-27_15h45.02.276,Cued GoNogo Task,2024.2.4,59.97123779177414,2025-04-27 15h45.13.713418 +0200,
block/CondBlock1.xlsx,You are about to start a block of type 1 trials.,14,14,0,Go,Go,0.12,0.05,0.2,space,blue,horizontal,space,2.018521999998484,None,space,1,0.353519199998118,None,,,,0,0,0,0,0,14,14,14,70.92181349999737,,,,,,,,,,,,,,,,70.90631150000263,70.93840769998496,71.63793570001144,71.63793570001144,72.13751760002924,72.12208060000557,72.1230641999864,72.13751760002924,72.27084519999335,72.45388729998376,72.45388729998376,72.82176139997318,space,1,0.353519199998118,None,72.82870010001352,73.33654619997833,74.33551100001205,74.31985510000959,,,,,,,,,,,,,,,,,002,002,2025-04-27_15h45.02.276,Cued GoNogo Task,2024.2.4,59.97123779177414,2025-04-27 15h45.13.713418 +0200,
block/CondBlock1.xlsx,You are about to start a block of type 1 trials.,15,15,0,Go,Go,0.45,0.2,0.05,space,blue,vertical,space,2.018521999998484,None,space,1,0.2459713999996893,None,,,,0,0,0,0,0,15,15,15,74.33551100001205,,,,,,,,,,,,,,,,74.32017959997756,74.33551100001205,75.03499910002574,75.03499910002574,75.53476760000922,75.51905850000912,75.51981640001759,75.53476760000922,75.98440800001845,76.18409970001085,76.18409970001085,76.43551139999181,space,1,0.2459713999996893,None,76.44176890002564,76.95036189997336,77.94926889997441,77.93345080001745,,,,,,,,,,,,,,,,,002,002,2025-04-27_15h45.02.276,Cued GoNogo Task,2024.2.4,59.97123779177414,2025-04-27 15h45.13.713418 +0200,
block/CondBlock1.xlsx,You are about to start a block of type 1 trials.,16,16,0,NoGo,NoGo,0.14,0.2,0.05,none,green,vertical,space,2.018521999998484,None,None,1,,,,,,0,0,0,0,0,16,16,16,77.94926889997441,,,,,,,,,,,,,,,,77.93373200000497,77.94926889997441,78.64875120000215,78.64875120000215,79.14830300002359,79.13257439999143,79.1332217999734,79.14830300002359,79.29841779998969,79.4813968000235,79.4813968000235,79.96506449999288,None,1,,,79.96745390002616,80.4639879000024,81.46323649998521,81.44745530001819,79.98128240002552,79.98128240002552,,,,,,,,,,,,,,,002,002,2025-04-27_15h45.02.276,Cued GoNogo Task,2024.2.4,59.97123779177414,2025-04-27 15h45.13.713418 +0200,
block/CondBlock1.xlsx,You are about to start a block of type 1 trials.,17,17,0,Go,Go,0.12,0.05,0.2,space,green,horizontal,space,2.018521999998484,None,space,1,0.22776119998889044,None,,,,0,0,0,0,0,17,17,17,81.46323649998521,,,,,,,,,,,,,,,,81.44784099998651,81.47978140000487,82.17916290002177,82.17916290002177,82.67880130000412,82.6632813999895,82.66402219998417,82.67880130000412,82.81223590002628,82.99533820000943,82.99533820000943,83.22989529999904,space,1,0.22776119998889044,None,83.23473640001612,83.7446907000267,84.74376759998268,84.72781309997663,,,,,,,,,,,,,,,,,002,002,2025-04-27_15h45.02.276,Cued GoNogo Task,2024.2.4,59.97123779177414,2025-04-27 15h45.13.713418 +0200,
block/CondBlock1.xlsx,You are about to start a block of type 1 trials.,18,18,0,Go,Go,0.47,0.2,0.05,space,blue,vertical,space,2.018521999998484,None,space,1,0.41375110001536086,None,,,,0,0,0,0,0,18,18,18,84.74376759998268,,,,,,,,,,,,,,,,84.72807200002717,84.74376759998268,85.4431704999879,85.4431704999879,85.94289050000953,85.9269357000012,85.92766869999468,85.94289050000953,86.4257087999722,86.60880170000019,86.60880170000019,87.02659660001518,space,1,0.41375110001536086,None,87.03011490002973,87.54160729999421,88.54069689998869,88.52493429998867,,,,,,,,,,,,,,,,,002,002,2025-04-27_15h45.02.276,Cued GoNogo Task,2024.2.4,59.97123779177414,2025-04-27 15h45.13.713418 +0200,
block/CondBlock1.xlsx,You are about to start a block of type 1 trials.,19,19,0,Go,Go,0.18,0.2,0.05,space,green,vertical,space,2.018521999998484,None,space,1,0.2759403000236489,None,,,,0,0,0,0,0,19,19,19,88.54069689998869,,,,,,,,,,,,,,,,88.52518120000605,88.54069689998869,89.2399102000054,89.2399102000054,89.73969850002322,89.7234539000201,89.72383199998876,89.73969850002322,89.92287170002237,90.10587410000153,90.10587410000153,90.39071830001194,space,1,0.2759403000236489,None,90.39662750001298,90.90562899998622,,91.90475839999272,,,,,,,,,,,,,,,,,002,002,2025-04-27_15h45.02.276,Cued GoNogo Task,2024.2.4,59.97123779177414,2025-04-27 15h45.13.713418 +0200,
block/CondBlock1.xlsx,You are about to start a block of type 1 trials.,20,20,0,Go,Go,0.19,0.2,0.05,space,blue,vertical,space,2.018521999998484,None,space,1,0.39971369999693707,None,,,,0,0,0,0,0,20,20,20,91.92132969998056,,,,,,,,,,,,,,,,91.90508140000748,91.92132969998056,92.6040208999766,92.62060770002427,93.10339330002898,93.08751590002794,93.0881183000165,93.10339330002898,93.30341160000535,93.48658899997827,93.48658899997827,93.88889439997729,space,1,0.39971369999693707,None,93.89420219999738,94.40257079998264,95.40170129999751,95.38581740000518,,,,,,,,,,,,,,,,,002,002,2025-04-27_15h45.02.276,Cued GoNogo Task,2024.2.4,59.97123779177414,2025-04-27 15h45.13.713418 +0200,
block/CondBlock1.xlsx,You are about to start a block of type 1 trials.,21,21,0,Go,Go,0.14,0.2,0.05,space,blue,vertical,space,2.018521999998484,None,space,1,0.2816350000211969,None,,,,0,0,0,0,0,21,21,21,95.40170129999751,,,,,,,,,,,,,,,,95.38609669997822,95.40170129999751,96.1011224000249,96.1011224000249,96.60087070002919,96.58486790000461,96.58570029999828,96.60087070002919,96.75061709998408,96.93380340002477,96.93380340002477,97.21798690001015,space,1,0.2816350000211969,None,97.22142720001284,97.73301119997632,98.73236480000196,98.71626299998024,,,,,,,,,,,,,,,,,002,002,2025-04-27_15h45.02.276,Cued GoNogo Task,2024.2.4,59.97123779177414,2025-04-27 15h45.13.713418 +0200,
block/CondBlock1.xlsx,You are about to start a block of type 1 trials.,22,22,0,Go,Go,0.15,0.2,0.05,space,blue,vertical,space,2.018521999998484,None,space,1,0.2370365999522619,None,,,,0,0,0,0,0,22,22,22,98.73236480000196,,,,,,,,,,,,,,,,98.7165528999758,98.73236480000196,99.43172659998527,99.43172659998527,99.93145209999057,99.91538740001852,99.91622760001337,99.93145209999057,100.08086699998239,100.28102970001055,100.28102970001055,100.53239860001486,space,1,0.2370365999522619,None,100.53706569998758,101.04719579999801,102.0460475999862,102.03052640001988,,,,,,,,,,,,,,,,,002,002,2025-04-27_15h45.02.276,Cued GoNogo Task,2024.2.4,59.97123779177414,2025-04-27 15h45.13.713418 +0200,
block/CondBlock1.xlsx,You are about to start a block of type 1 trials.,23,23,0,Go,Go,0.23,0.05,0.2,space,green,horizontal,space,2.018521999998484,None,space,1,0.2889341000118293,None,,,,0,0,0,0,0,23,23,23,102.0460475999862,,,,,,,,,,,,,,,,102.0309358999948,102.0460475999862,102.74556429998484,102.74556429998484,103.2453136999975,103.22930339997401,103.23003420000896,103.2453136999975,103.47848360001808,103.67827630002284,103.67827630002284,103.97921929997392,space,1,0.2889341000118293,None,103.98298570001498,104.49423240002943,105.4934228999773,105.47784659999888,,,,,,,,,,,,,,,,,002,002,2025-04-27_15h45.02.276,Cued GoNogo Task,2024.2.4,59.97123779177414,2025-04-27 15h45.13.713418 +0200,
block/CondBlock1.xlsx,You are about to start a block of type 1 trials.,24,24,0,Go,Go,0.2,0.2,0.05,space,blue,vertical,space,2.018521999998484,None,space,1,0.22755209996830672,None,,,,0,0,0,0,0,24,24,24,105.4934228999773,,,,,,,,,,,,,,,,105.4781322000199,105.4934228999773,106.19292810000479,106.19292810000479,106.6922805000213,106.67679739999585,106.67773970001144,106.6922805000213,106.8923418999766,107.09213230002206,107.09213230002206,107.32631370000308,space,1,0.22755209996830672,None,107.33134109998355,107.84148160001496,108.84062410000479,108.82511039997917,,,,,,,,,,,,,,,,,002,002,2025-04-27_15h45.02.276,Cued GoNogo Task,2024.2.4,59.97123779177414,2025-04-27 15h45.13.713418 +0200,
block/CondBlock1.xlsx,You are about to start a block of type 1 trials.,25,25,0,Go,Go,0.15,0.2,0.05,space,blue,vertical,space,2.018521999998484,None,space,1,0.38488059997325763,None,,,,0,0,0,0,0,25,25,25,108.84062410000479,,,,,,,,,,,,,,,,108.82551220001187,108.84062410000479,109.54002700001001,109.54002700001001,110.03969679999864,110.02348279999569,110.0240587000153,110.03969679999864,110.18961270002183,110.3894103000057,110.3894103000057,110.79077550000511,space,1,0.38488059997325763,None,110.79662079998525,111.30536190001294,112.30442449997645,112.28862790000858,,,,,,,,,,,,,,,,,002,002,2025-04-27_15h45.02.276,Cued GoNogo Task,2024.2.4,59.97123779177414,2025-04-27 15h45.13.713418 +0200,
block/CondBlock1.xlsx,You are about to start a block of type 1 trials.,26,26,0,NoGo,NoGo,0.2,0.2,0.05,none,blue,vertical,space,2.018521999998484,None,None,1,,,,,,0,0,0,0,0,26,26,26,112.30442449997645,,,,,,,,,,,,,,,,112.28891160001513,112.30442449997645,113.00396280002315,113.00396280002315,113.50364170002285,113.48736470000586,113.48791169998003,113.50364170002285,113.70320849999553,113.90320439997595,113.90320439997595,114.3868515000213,None,1,,,114.38970870000776,114.90224989998387,115.90163680003025,115.88579859997844,114.40282229997683,114.40282229997683,,,,,,,,,,,,,,,002,002,2025-04-27_15h45.02.276,Cued GoNogo Task,2024.2.4,59.97123779177414,2025-04-27 15h45.13.713418 +0200,
block/CondBlock1.xlsx,You are about to start a block of type 1 trials.,27,27,0,Go,Go,0.29,0.05,0.2,space,green,horizontal,space,2.018521999998484,None,space,1,0.398815700027626,None,,,,0,0,0,0,0,27,27,27,115.90163680003025,,,,,,,,,,,,,,,,115.88616840000032,115.90163680003025,116.60107779997634,116.60107779997634,117.10064860002603,117.08448149997275,117.08527430001413,117.10064860002603,117.4002472999855,117.5835113999783,117.5835113999783,117.98489909997443,space,1,0.398815700027626,None,117.98912009998458,118.4992118999944,119.49857759999577,119.48254930000985,,,,,,,,,,,,,,,,,002,002,2025-04-27_15h45.02.276,Cued GoNogo Task,2024.2.4,59.97123779177414,2025-04-27 15h45.13.713418 +0200,
block/CondBlock1.xlsx,You are about to start a block of type 1 trials.,28,28,0,Go,Go,0.24,0.2,0.05,space,blue,vertical,space,2.018521999998484,None,space,1,0.3003135999897495,None,,,,0,0,0,0,0,28,28,28,119.49857759999577,,,,,,,,,,,,,,,,119.48280629998771,119.49857759999577,120.19781480001984,120.19781480001984,120.69743010000093,120.68182459997479,120.68263840000145,120.69743010000093,120.94727850001073,121.13070069998503,121.13070069998503,121.4480299000279,space,1,0.3003135999897495,None,121.4509291999857,121.96321329998318,122.96243259997573,122.94658270000946,,,,,,,,,,,,,,,,,002,002,2025-04-27_15h45.02.276,Cued GoNogo Task,2024.2.4,59.97123779177414,2025-04-27 15h45.13.713418 +0200,
block/CondBlock1.xlsx,You are about to start a block of type 1 trials.,29,29,0,Go,Go,0.15,0.05,0.2,space,green,horizontal,space,2.018521999998484,None,space,1,0.2315802999655716,None,,,,0,0,0,0,0,29,29,29,122.96243259997573,,,,,,,,,,,,,,,,122.9469135000254,122.96243259997573,123.66176559997257,123.66176559997257,124.16120430000592,124.14542449999135,124.1462791999802,124.16120430000592,124.3110889000236,124.5112123999861,124.5112123999861,124.74652099999366,space,1,0.2315802999655716,None,124.75151610001922,125.2606360000209,126.25979169999482,126.24378700001398,,,,,,,,,,,,,,,,,002,002,2025-04-27_15h45.02.276,Cued GoNogo Task,2024.2.4,59.97123779177414,2025-04-27 15h45.13.713418 +0200,
block/CondBlock1.xlsx,You are about to start a block of type 1 trials.,30,30,0,Go,Go,0.23,0.2,0.05,space,green,vertical,space,2.018521999998484,None,space,1,0.3551570000126958,None,,,,0,0,0,0,0,30,30,30,126.25979169999482,,,,,,,,,,,,,,,,126.24409280001419,126.25979169999482,126.9591778999893,126.9591778999893,127.45863670000108,127.4428876999882,127.44355869997526,127.45863670000108,127.69178059999831,127.89170300000114,127.89170300000114,128.25952249998227,space,1,0.3551570000126958,None,128.26426630001515,128.77425890002633,129.7734749999945,129.7577750000055,,,,,,,,,,,,,,,,,002,002,2025-04-27_15h45.02.276,Cued GoNogo Task,2024.2.4,59.97123779177414,2025-04-27 15h45.13.713418 +0200,
block/CondBlock1.xlsx,You are about to start a block of type 1 trials.,31,31,0,Go,Go,0.28,0.2,0.05,space,green,vertical,space,2.018521999998484,None,space,1,0.2876948000048287,None,,,,0,0,0,0,0,31,31,31,129.7734749999945,,,,,,,,,,,,,,,,129.7580566999968,129.7734749999945,130.47286159999203,130.47286159999203,130.97253899998032,130.95640810002806,130.9570108000189,130.97253899998032,131.25558029999956,131.45532499998808,131.45532499998808,131.75622640002985,space,1,0.2876948000048287,None,131.7591117999982,132.27148270001635,,133.27083410002524,,,,,,,,,,,,,,,,,002,002,2025-04-27_15h45.02.276,Cued GoNogo Task,2024.2.4,59.97123779177414,2025-04-27 15h45.13.713418 +0200,
block/CondBlock1.xlsx,You are about to start a block of type 1 trials.,32,32,0,Go,Go,0.19,0.2,0.05,space,green,vertical,space,2.018521999998484,None,space,1,0.25021129997912794,None,,,,0,0,0,0,0,32,32,32,133.287164999987,,,,,,,,,,,,,,,,133.27115470002173,133.287164999987,133.970245399978,133.98680170002626,134.4695887999842,134.45409120002296,134.45505970000522,134.4695887999842,134.66941550001502,134.85249379999004,134.85249379999004,135.10463429999072,space,1,0.25021129997912794,None,135.1088180000079,135.61849800002528,136.61780210002325,136.60199840000132,,,,,,,,,,,,,,,,,002,002,2025-04-27_15h45.02.276,Cued GoNogo Task,2024.2.4,59.97123779177414,2025-04-27 15h45.13.713418 +0200,
block/CondBlock1.xlsx,You are about to start a block of type 1 trials.,33,33,0,Go,Go,0.12,0.2,0.05,space,green,vertical,space,2.018521999998484,None,space,1,0.24922050000168383,None,,,,0,0,0,0,0,33,33,33,136.61780210002325,,,,,,,,,,,,,,,,136.6022893000045,136.61780210002325,137.3173515999806,137.3173515999806,137.81670229998417,137.80106859997613,137.80182460002834,137.81670229998417,137.95003599999472,138.13323610002408,138.13323610002408,138.38517939997837,space,1,0.24922050000168383,None,138.39140409999527,138.8991533999797,139.89850150002167,139.88268280000193,,,,,,,,,,,,,,,,,002,002,2025-04-27_15h45.02.276,Cued GoNogo Task,2024.2.4,59.97123779177414,2025-04-27 15h45.13.713418 +0200,
block/CondBlock1.xlsx,You are about to start a block of type 1 trials.,34,34,0,Go,Go,0.18,0.2,0.05,space,blue,vertical,space,2.018521999998484,None,space,1,0.2301615999895148,None,,,,0,0,0,0,0,34,34,34,139.89850150002167,,,,,,,,,,,,,,,,139.88294949999545,139.89850150002167,140.59786989999702,140.59786989999702,141.0973643999896,141.08171930001117,141.08251420001034,141.0973643999896,141.28054230002454,141.48040160001256,141.48040160001256,141.71447419998003,space,1,0.2301615999895148,None,141.71745240001474,142.2299060000223,143.22909430001164,143.2132147999946,,,,,,,,,,,,,,,,,002,002,2025-04-27_15h45.02.276,Cued GoNogo Task,2024.2.4,59.97123779177414,2025-04-27 15h45.13.713418 +0200,
block/CondBlock1.xlsx,You are about to start a block of type 1 trials.,35,35,0,Go,Go,0.21,0.2,0.05,space,blue,vertical,space,2.018521999998484,None,space,1,0.38688460004050285,None,,,,0,0,0,0,0,35,35,35,143.22909430001164,,,,,,,,,,,,,,,,143.2134499999811,143.22909430001164,143.92843650002033,143.92843650002033,144.42812950001098,144.4118649000302,144.41268940002192,144.42812950001098,144.64466150000226,144.82761799998116,144.82761799998116,145.22843780001858,space,1,0.38688460004050285,None,145.23304530000314,145.74357960000634,146.74286360002588,146.72735280002235,,,,,,,,,,,,,,,,,002,002,2025-04-27_15h45.02.276,Cued GoNogo Task,2024.2.4,59.97123779177414,2025-04-27 15h45.13.713418 +0200,
block/CondBlock1.xlsx,You are about to start a block of type 1 trials.,36,36,0,Go,Go,0.2,0.2,0.05,space,green,vertical,space,2.018521999998484,None,space,1,0.28928409999934956,None,,,,0,0,0,0,0,36,36,36,146.74286360002588,,,,,,,,,,,,,,,,146.72774780000327,146.74286360002588,147.44235359999584,147.44235359999584,147.94172100001015,147.9259646999999,147.92665819998365,147.94172100001015,148.14154340000823,148.34156359999906,148.34156359999906,148.64262020000024,space,1,0.28928409999934956,None,148.64720760000637,149.15738310001325,150.15658369997982,150.1409854000085,,,,,,,,,,,,,,,,,002,002,2025-04-27_15h45.02.276,Cued GoNogo Task,2024.2.4,59.97123779177414,2025-04-27 15h45.13.713418 +0200,
block/CondBlock1.xlsx,You are about to start a block of type 1 trials.,37,37,0,Go,Go,0.45,0.05,0.2,space,blue,horizontal,space,2.018521999998484,None,space,1,0.3776064999983646,None,,,,0,0,0,0,0,37,37,37,150.15658369997982,,,,,,,,,,,,,,,,150.14126290002605,150.15658369997982,150.85625309997704,150.85625309997704,151.35554590000538,151.3398761000135,151.34096960001625,151.35554590000538,151.80529150000075,152.00509729998885,152.00509729998885,152.38945650000824,space,1,0.3776064999983646,None,152.39329590002308,152.90430950000882,153.90356800000882,153.8880033000023,,,,,,,,,,,,,,,,,002,002,2025-04-27_15h45.02.276,Cued GoNogo Task,2024.2.4,59.97123779177414,2025-04-27 15h45.13.713418 +0200,
block/CondBlock1.xlsx,You are about to start a block of type 1 trials.,38,38,0,Go,Go,0.13,0.05,0.2,space,blue,horizontal,space,2.018521999998484,None,space,1,0.3488415000028908,None,,,,0,0,0,0,0,38,38,38,153.90356800000882,,,,,,,,,,,,,,,,153.8884253000142,153.90356800000882,154.60302029998275,154.60302029998275,155.1024488999974,155.0864596000174,155.0870614000014,155.1024488999974,155.23587500001304,155.41890260000946,155.41890260000946,155.7706779,space,1,0.3488415000028908,None,155.77508539997507,156.28495380003005,157.2841608999879,157.26827739999862,,,,,,,,,,,,,,,,,002,002,2025-04-27_15h45.02.276,Cued GoNogo Task,2024.2.4,59.97123779177414,2025-04-27 15h45.13.713418 +0200,
block/CondBlock1.xlsx,You are about to start a block of type 1 trials.,39,39,0,Go,Go,0.46,0.2,0.05,space,blue,vertical,space,2.018521999998484,None,space,1,0.3054394999635406,None,,,,0,0,0,0,0,39,39,39,157.2841608999879,,,,,,,,,,,,,,,,157.26865739998175,157.2841608999879,157.98355409997748,157.98355409997748,158.483106700005,158.4671764000086,158.46774649998406,158.483106700005,158.94944870000472,159.13258749997476,159.13258749997476,159.45062110002618,space,1,0.3054394999635406,None,159.45631290000165,159.96527799998876,160.96446839999408,160.94845849997364,,,,,,,,,,,,,,,,,002,002,2025-04-27_15h45.02.276,Cued GoNogo Task,2024.2.4,59.97123779177414,2025-04-27 15h45.13.713418 +0200,
block/CondBlock1.xlsx,You are about to start a block of type 1 trials.,40,40,0,Go,Go,0.29,0.2,0.05,space,blue,vertical,space,2.018521999998484,None,space,1,0.3515419999603182,None,,,,0,0,0,0,0,40,40,40,160.96446839999408,,,,,,,,,,,,,,,,160.94876140000997,160.96446839999408,161.66370859998278,161.66370859998278,162.1633523000055,162.14747149997856,162.1480617999914,162.1633523000055,162.46317230002023,162.64653889997862,162.64653889997862,163.01397760002874,space,1,0.3515419999603182,None,163.01821800001198,163.52900650002994,164.52818550000666,164.5124093000195,,,,,,,,,,,,,,,,,002,002,2025-04-27_15h45.02.276,Cued GoNogo Task,2024.2.4,59.97123779177414,2025-04-27 15h45.13.713418 +0200,
block/CondBlock1.xlsx,You are about to start a block of type 1 trials.,41,41,0,Go,Go,0.22,0.2,0.05,space,blue,vertical,space,2.018521999998484,None,space,1,0.31850290001602843,None,,,,0,0,0,0,0,41,41,41,164.52818550000666,,,,,,,,,,,,,,,,164.51279850001447,164.52818550000666,165.22757370001636,165.22757370001636,165.7271637999802,165.71128490002593,165.71184270002414,165.7271637999802,165.96026909997454,166.14339540002402,166.14339540002402,166.4779582999763,space,1,0.31850290001602843,None,166.48296900000423,166.9928610000061,167.99194759997772,167.97633759997552,,,,,,,,,,,,,,,,,002,002,2025-04-27_15h45.02.276,Cued GoNogo Task,2024.2.4,59.97123779177414,2025-04-27 15h45.13.713418 +0200,
block/CondBlock1.xlsx,You are about to start a block of type 1 trials.,42,42,0,Go,Go,0.49,0.2,0.05,space,blue,vertical,space,2.018521999998484,None,space,1,0.3888398000271991,None,,,,0,0,0,0,0,42,42,42,167.99194759997772,,,,,,,,,,,,,,,,167.97671140002785,167.99194759997772,168.69145480002044,168.69145480002044,169.19092520000413,169.17505199997686,169.1756735999952,169.19092520000413,169.69063119997736,169.8736888000276,169.8736888000276,170.2749949999852,space,1,0.3888398000271991,None,170.27916099998401,170.78979399998207,,171.78912109998055,,,,,,,,,,,,,,,,,002,002,2025-04-27_15h45.02.276,Cued GoNogo Task,2024.2.4,59.97123779177414,2025-04-27 15h45.13.713418 +0200,
block/CondBlock1.xlsx,You are about to start a block of type 1 trials.,43,43,0,Go,Go,0.2,0.2,0.05,space,blue,vertical,space,2.018521999998484,None,space,1,0.3232747000292875,None,,,,0,0,0,0,0,43,43,43,171.80560349998996,,,,,,,,,,,,,,,,171.78946549998363,171.80560349998996,172.4882127000019,172.5050017000176,172.9880316000199,172.97191899997415,172.97264440002618,172.9880316000199,173.18762540002353,173.38748269999633,173.38748269999633,173.72207289998187,space,1,0.3232747000292875,None,173.72652790002758,174.23689380002907,175.23609919997398,175.22007879999,,,,,,,,,,,,,,,,,002,002,2025-04-27_15h45.02.276,Cued GoNogo Task,2024.2.4,59.97123779177414,2025-04-27 15h45.13.713418 +0200,
block/CondBlock1.xlsx,You are about to start a block of type 1 trials.,44,44,0,Go,Go,0.3,0.05,0.2,space,blue,horizontal,space,2.018521999998484,None,space,1,0.23999980004737154,None,,,,0,0,0,0,0,44,44,44,175.23609919997398,,,,,,,,,,,,,,,,175.2203554000007,175.23609919997398,175.9354642999824,175.9354642999824,176.4351386000053,176.4194863999728,176.420502700028,176.4351386000053,176.73485220002476,176.9346164999879,176.9346164999879,177.18575349997263,space,1,0.23999980004737154,None,177.1901358999894,177.70074880000902,178.69975059997523,178.68384750001132,,,,,,,,,,,,,,,,,002,002,2025-04-27_15h45.02.276,Cued GoNogo Task,2024.2.4,59.97123779177414,2025-04-27 15h45.13.713418 +0200,
block/CondBlock1.xlsx,You are about to start a block of type 1 trials.,45,45,0,NoGo,NoGo,0.21,0.05,0.2,none,green,horizontal,space,2.018521999998484,None,space,0,0.2357645000447519,None,,,,0,0,0,0,0,45,45,45,178.69975059997523,,,,,,,,,,,,,,,,178.6840856000199,178.69975059997523,179.3992845999892,179.3992845999892,179.89882890001172,179.8830936999875,179.88380489998963,179.89882890001172,180.11530820000917,180.29864950000774,180.29864950000774,180.5492157000117,space,0,0.2357645000447519,None,180.55320339999162,181.06462279998232,182.06370479997713,182.04764000000432,,,,,,,,,,,,,,,,,002,002,2025-04-27_15h45.02.276,Cued GoNogo Task,2024.2.4,59.97123779177414,2025-04-27 15h45.13.713418 +0200,
block/CondBlock1.xlsx,You are about to start a block of type 1 trials.,46,46,0,NoGo,NoGo,0.45,0.05,0.2,none,blue,horizontal,space,2.018521999998484,None,None,1,,,,,,0,0,0,0,0,46,46,46,182.06370479997713,,,,,,,,,,,,,,,,182.04791449999902,182.06370479997713,182.76327120000497,182.76327120000497,183.26267089997418,183.24717099999543,183.24804099998437,183.26267089997418,183.71259559999453,183.9121161000221,183.9121161000221,184.39592049998464,None,1,,,184.39837379998062,184.91128150001168,185.91057860001456,185.8944353000261,184.41172159998678,184.41172159998678,,,,,,,,,,,,,,,002,002,2025-04-27_15h45.02.276,Cued GoNogo Task,2024.2.4,59.97123779177414,2025-04-27 15h45.13.713418 +0200,
block/CondBlock1.xlsx,You are about to start a block of type 1 trials.,47,47,0,Go,Go,0.24,0.05,0.2,space,green,horizontal,space,2.018521999998484,None,space,1,0.32839700003387406,None,,,,0,0,0,0,0,47,47,47,185.91057860001456,,,,,,,,,,,,,,,,185.89469490002375,185.91057860001456,186.60996159998467,186.60996159998467,187.10942639998393,187.09339689998887,187.094022699981,187.10942639998393,187.35951219999697,187.54264990001684,187.54264990001684,187.87671219999902,space,1,0.32839700003387406,None,187.88208559999475,188.39201890002005,,189.39133680000668,,,,,,,,,,,,,,,,,002,002,2025-04-27_15h45.02.276,Cued GoNogo Task,2024.2.4,59.97123779177414,2025-04-27 15h45.13.713418 +0200,
block/CondBlock1.xlsx,You are about to start a block of type 1 trials.,48,48,0,NoGo,NoGo,0.15,0.2,0.05,none,blue,vertical,space,2.018521999998484,None,None,1,,,,,,0,0,0,0,0,48,48,48,189.40767619997496,,,,,,,,,,,,,,,,189.3917668000213,189.40767619997496,190.09030129999155,190.1070674000075,190.5902277000132,190.5744803000125,190.57538190000923,190.5902277000132,190.740066999977,190.93987599998945,190.93987599998945,191.42305899999337,None,1,,,191.42459529999178,191.92215499997837,192.92140240001027,192.90560569998343,191.43924370000605,191.43924370000605,,,,,,,,,,,,,,,002,002,2025-04-27_15h45.02.276,Cued GoNogo Task,2024.2.4,59.97123779177414,2025-04-27 15h45.13.713418 +0200,
block/CondBlock1.xlsx,You are about to start a block of type 1 trials.,49,49,0,Go,Go,0.12,0.05,0.2,space,blue,horizontal,space,2.018521999998484,None,space,1,0.2734053999884054,None,,,,0,0,0,0,0,49,49,49,192.92140240001027,,,,,,,,,,,,,,,,192.9059182999772,192.9387473000097,193.63750030001393,193.65431210002862,194.13691130001098,194.12138570001116,194.12205579999136,194.13691130001098,194.27036289998796,194.45368809998035,194.45368809998035,194.73813800001517,space,1,0.2734053999884054,None,194.74431169999298,195.25288470002124,196.25183299998753,196.23625160002848,,,,,,,,,,,,,,,,,002,002,2025-04-27_15h45.02.276,Cued GoNogo Task,2024.2.4,59.97123779177414,2025-04-27 15h45.13.713418 +0200,
block/CondBlock1.xlsx,You are about to start a block of type 1 trials.,50,50,0,Go,Go,0.22,0.2,0.05,space,green,vertical,space,2.018521999998484,None,space,1,0.37966410000808537,None,,,,0,0,0,0,0,50,50,50,196.25183299998753,,,,,,,,,,,,,,,,196.23659679997945,196.25183299998753,196.95153989997925,196.95153989997925,197.4509909999906,197.43515919998754,197.43558250000933,197.4509909999906,197.68426040001214,197.8673307999852,197.8673307999852,198.2520689999801,space,1,0.37966410000808537,None,198.25719039997784,198.76668479997898,199.76568539999425,199.7503264999832,,,,,,,,,,,,,,,,,002,002,2025-04-27_15h45.02.276,Cued GoNogo Task,2024.2.4,59.97123779177414,2025-04-27 15h45.13.713418 +0200,
block/CondBlock1.xlsx,You are about to start a block of type 1 trials.,51,51,0,Go,Go,0.28,0.05,0.2,space,green,horizontal,space,2.018521999998484,None,None,0,,,,,,0,0,0,0,0,51,51,51,199.76568539999425,,,,,,,,,,,,,,,,199.75073849997716,199.76568539999425,200.4651707999874,200.4651707999874,200.964822000009,200.94889030000195,200.94955399999162,200.964822000009,201.248073499999,201.4479740000097,201.4479740000097,201.93125889997464,None,0,,,201.93568120000418,202.43018949998077,203.4293857999728,203.41324999998324,201.94731160002993,201.94731160002993,,,,,,,,,,,,,,,002,002,2025-04-27_15h45.02.276,Cued GoNogo Task,2024.2.4,59.97123779177414,2025-04-27 15h45.13.713418 +0200,
block/CondBlock1.xlsx,You are about to start a block of type 1 trials.,52,52,0,Go,Go,0.23,0.2,0.05,space,green,vertical,space,2.018521999998484,None,space,1,0.37707119999686256,None,,,,0,0,0,0,0,52,52,52,203.4293857999728,,,,,,,,,,,,,,,,203.41346130002057,203.446235099982,204.1455788000021,204.1455788000021,204.64493680000305,204.62898189999396,204.6293786999886,204.64493680000305,204.87801970000146,205.06154309998965,205.06154309998965,205.44556590000866,space,1,0.37707119999686256,None,205.44886389997555,205.96068349998677,206.960008700029,206.94404410000425,,,,,,,,,,,,,,,,,002,002,2025-04-27_15h45.02.276,Cued GoNogo Task,2024.2.4,59.97123779177414,2025-04-27 15h45.13.713418 +0200,
block/CondBlock1.xlsx,You are about to start a block of type 1 trials.,53,53,0,Go,Go,0.22,0.05,0.2,space,green,horizontal,space,2.018521999998484,None,space,1,0.22402050002710894,None,,,,0,0,0,0,0,53,53,53,206.960008700029,,,,,,,,,,,,,,,,206.9443420000025,206.960008700029,207.6594230000046,207.6594230000046,208.1587115000002,208.1425811999943,208.1430608999799,208.1587115000002,208.3920132999774,208.57527630002005,208.57527630002005,208.80925470002694,space,1,0.22402050002710894,None,208.81182850000914,209.3246956000221,210.32378320000134,210.30815709999297,,,,,,,,,,,,,,,,,002,002,2025-04-27_15h45.02.276,Cued GoNogo Task,2024.2.4,59.97123779177414,2025-04-27 15h45.13.713418 +0200,
block/CondBlock1.xlsx,You are about to start a block of type 1 trials.,54,54,0,NoGo,NoGo,0.14,0.05,0.2,none,green,horizontal,space,2.018521999998484,None,None,1,,,,,,0,0,0,0,0,54,54,54,210.32378320000134,,,,,,,,,,,,,,,,210.30849740002304,210.32378320000134,211.02308830001857,211.02308830001857,211.52281230001245,211.50717180001084,211.50798619998386,211.52281230001245,211.67269580002176,211.8559068000177,211.8559068000177,212.33937770000193,None,1,,,212.3429388999939,212.83833629998844,213.83753479999723,213.82151630002772,212.3555196999805,212.3555196999805,,,,,,,,,,,,,,,002,002,2025-04-27_15h45.02.276,Cued GoNogo Task,2024.2.4,59.97123779177414,2025-04-27 15h45.13.713418 +0200,
block/CondBlock1.xlsx,You are about to start a block of type 1 trials.,55,55,0,Go,Go,0.15,0.2,0.05,space,blue,vertical,space,2.018521999998484,None,space,1,0.22751830000197515,None,,,,0,0,0,0,0,55,55,55,213.83753479999723,,,,,,,,,,,,,,,,213.82177650002996,213.85440990002826,214.55374539998593,214.55374539998593,215.05328669998562,215.03733560000546,215.03821680002147,215.05328669998562,215.20322790002683,215.40293270000257,215.40293270000257,215.63797500001965,space,1,0.22751830000197515,None,215.64379599998938,216.15243309998186,217.15160679997643,217.13579969998682,,,,,,,,,,,,,,,,,002,002,2025-04-27_15h45.02.276,Cued GoNogo Task,2024.2.4,59.97123779177414,2025-04-27 15h45.13.713418 +0200,
block/CondBlock1.xlsx,You are about to start a block of type 1 trials.,56,56,0,Go,Go,0.47,0.2,0.05,space,blue,vertical,space,2.018521999998484,None,space,1,0.39787869999418035,None,,,,0,0,0,0,0,56,56,56,217.15160679997643,,,,,,,,,,,,,,,,217.13612719997764,217.15160679997643,217.85084809997352,217.85084809997352,218.35044940002263,218.33467479998944,218.33511039998848,218.35044940002263,218.83349430002272,219.0167540999828,219.0167540999828,219.41801959997974,space,1,0.39787869999418035,None,219.42151930002728,219.93254660000093,220.9316688000108,220.91592270002002,,,,,,,,,,,,,,,,,002,002,2025-04-27_15h45.02.276,Cued GoNogo Task,2024.2.4,59.97123779177414,2025-04-27 15h45.13.713418 +0200,
block/CondBlock1.xlsx,You are about to start a block of type 1 trials.,57,57,0,NoGo,NoGo,0.42,0.2,0.05,none,green,vertical,space,2.018521999998484,None,None,1,,,,,,0,0,0,0,0,57,57,57,220.9316688000108,,,,,,,,,,,,,,,,220.91618579998612,220.9316688000108,221.63118470000336,221.63118470000336,222.13072710001143,222.11479520000285,222.11554010002874,222.13072710001143,222.56373519997578,222.746921700018,222.746921700018,223.23097759997472,None,1,,,223.23454829998082,223.74618389998795,224.74529779999284,224.72942930000136,223.24663830001373,223.24663830001373,,,,,,,,,,,,,,,002,002,2025-04-27_15h45.02.276,Cued GoNogo Task,2024.2.4,59.97123779177414,2025-04-27 15h45.13.713418 +0200,
block/CondBlock1.xlsx,You are about to start a block of type 1 trials.,58,58,0,Go,Go,0.22,0.05,0.2,space,green,horizontal,space,2.018521999998484,None,space,1,0.2856394999544136,None,,,,0,0,0,0,0,58,58,58,224.74529779999284,,,,,,,,,,,,,,,,224.7297058000113,224.74529779999284,225.44468080002116,225.44468080002116,225.94431890000124,225.92836820002412,225.92912649997743,225.94431890000124,226.1774868000066,226.36062240001047,226.36062240001047,226.66175839997595,space,1,0.2856394999544136,None,226.66674820001936,227.17661859997315,228.17577029997483,228.15999070002,,,,,,,,,,,,,,,,,002,002,2025-04-27_15h45.02.276,Cued GoNogo Task,2024.2.4,59.97123779177414,2025-04-27 15h45.13.713418 +0200,
block/CondBlock1.xlsx,You are about to start a block of type 1 trials.,59,59,0,Go,Go,0.3,0.2,0.05,space,blue,vertical,space,2.018521999998484,None,space,1,0.16427000000840053,None,,,,0,0,0,0,0,59,59,59,228.17577029997483,,,,,,,,,,,,,,,,228.16029279999202,228.17577029997483,228.87514790002024,228.87514790002024,229.37484459998086,229.3584624999785,229.35889209999004,229.37484459998086,229.67444299999624,229.87440159998368,229.87440159998368,230.0423640999943,space,1,0.16427000000840053,None,230.04645850002998,230.5571313999826,231.55631559999892,231.5405586999841,,,,,,,,,,,,,,,,,002,002,2025-04-27_15h45.02.276,Cued GoNogo Task,2024.2.4,59.97123779177414,2025-04-27 15h45.13.713418 +0200,
block/CondBlock1.xlsx,You are about to start a block of type 1 trials.,60,60,0,NoGo,NoGo,0.24,0.2,0.05,none,blue,vertical,space,2.018521999998484,None,None,1,,,,,,0,0,0,0,0,60,60,60,231.55631559999892,,,,,,,,,,,,,,,,231.54091330000665,231.55631559999892,232.25583470001584,232.25583470001584,232.75541729998076,232.73976409999887,232.7406227000174,232.75541729998076,233.0051461000112,233.18836969998665,233.18836969998665,233.67181919998256,None,1,,,233.67432320001535,234.1708158000256,235.17009229998803,235.1542132999748,233.6879621000262,233.6879621000262,,,,,,,,,,,,,,,002,002,2025-04-27_15h45.02.276,Cued GoNogo Task,2024.2.4,59.97123779177414,2025-04-27 15h45.13.713418 +0200,
block/CondBlock1.xlsx,You are about to start a block of type 1 trials.,61,61,0,NoGo,NoGo,0.1,0.2,0.05,none,green,vertical,space,2.018521999998484,None,space,0,0.145192300027702,None,,,,0,0,0,0,0,61,61,61,235.17009229998803,,,,,,,,,,,,,,,,235.15447960002348,235.18682459997945,235.88618769997265,235.88618769997265,236.38566580001498,236.37013469997328,236.37089279998327,236.38566580001498,236.4856244000257,236.68546210002387,236.68546210002387,236.8367229999858,space,0,0.145192300027702,None,236.8421062999987,237.35157280002022,238.35073230002308,238.33527330000652,,,,,,,,,,,,,,,,,002,002,2025-04-27_15h45.02.276,Cued GoNogo Task,2024.2.4,59.97123779177414,2025-04-27 15h45.13.713418 +0200,
block/CondBlock1.xlsx,You are about to start a block of type 1 trials.,62,62,0,Go,Go,0.45,0.05,0.2,space,blue,horizontal,space,2.018521999998484,None,space,1,0.37650819995906204,None,,,,0,0,0,0,0,62,62,62,238.35073230002308,,,,,,,,,,,,,,,,238.33562249998795,238.35073230002308,239.0500316999969,239.0500316999969,239.5496690000291,239.53426149999723,239.53506740002194,239.5496690000291,239.999512600014,240.19918960001087,240.19918960001087,240.5838929999736,space,1,0.37650819995906204,None,240.5890430000145,241.0984459000174,,242.09758300002431,,,,,,,,,,,,,,,,,002,002,2025-04-27_15h45.02.276,Cued GoNogo Task,2024.2.4,59.97123779177414,2025-04-27 15h45.13.713418 +0200,
block/CondBlock1.xlsx,You are about to start a block of type 1 trials.,63,63,0,Go,Go,0.1,0.05,0.2,space,green,horizontal,space,2.018521999998484,None,space,1,0.2988443999784067,None,,,,0,0,0,0,0,63,63,63,242.1142136999988,,,,,,,,,,,,,,,,242.09782840003027,242.1142136999988,242.79685079999035,242.8135283999727,243.2968160000164,243.28098979999777,243.28182470001047,243.2968160000164,243.39646449999418,243.59632529999362,243.59632529999362,243.8980248000007,space,1,0.2988443999784067,None,243.9022237000172,244.41249140002765,245.4116473000031,245.39560129999882,,,,,,,,,,,,,,,,,002,002,2025-04-27_15h45.02.276,Cued GoNogo Task,2024.2.4,59.97123779177414,2025-04-27 15h45.13.713418 +0200,
block/CondBlock1.xlsx,You are about to start a block of type 1 trials.,64,64,0,Go,Go,0.19,0.05,0.2,space,blue,horizontal,space,2.018521999998484,None,space,1,0.14939639996737242,None,,,,0,0,0,0,0,64,64,64,245.4116473000031,,,,,,,,,,,,,,,,245.3958999000024,245.4116473000031,246.11117200000444,246.11117200000444,246.61072160000913,246.59428339998703,246.59465729998192,246.61072160000913,246.8103103999747,246.99372879997827,246.99372879997827,247.14574970002286,space,1,0.14939639996737242,None,247.15011049999157,247.6598348999978,248.65893590002088,248.6431864000042,,,,,,,,,,,,,,,,,002,002,2025-04-27_15h45.02.276,Cued GoNogo Task,2024.2.4,59.97123779177414,2025-04-27 15h45.13.713418 +0200,
block/CondBlock1.xlsx,You are about to start a block of type 1 trials.,65,65,0,Go,Go,0.21,0.2,0.05,space,blue,vertical,space,2.018521999998484,None,space,1,0.22073420003289357,None,,,,0,0,0,0,0,65,65,65,248.65893590002088,,,,,,,,,,,,,,,,248.64367479999783,248.65893590002088,249.35818809998455,249.35818809998455,249.85778040002333,249.84233419998782,249.8430773,249.85778040002333,250.07435569999507,250.25768989999779,250.25768989999779,250.4921931999852,space,1,0.22073420003289357,None,250.49696159997256,251.00701160001336,252.00617830001283,251.99058769998373,,,,,,,,,,,,,,,,,002,002,2025-04-27_15h45.02.276,Cued GoNogo Task,2024.2.4,59.97123779177414,2025-04-27 15h45.13.713418 +0200,
block/CondBlock1.xlsx,You are about to start a block of type 1 trials.,66,66,0,Go,Go,0.18,0.05,0.2,space,blue,horizontal,space,2.018521999998484,None,space,1,0.27538010000716895,None,,,,0,0,0,0,0,66,66,66,252.00617830001283,,,,,,,,,,,,,,,,251.99100219999673,252.00617830001283,252.7055836999789,252.7055836999789,253.20514430000912,253.18932549998863,253.19004979997408,253.20514430000912,253.3882146999822,253.5714816999971,253.5714816999971,253.85610069998074,space,1,0.27538010000716895,None,253.86044939997373,254.37085629999638,255.37004349997733,255.3540987999877,,,,,,,,,,,,,,,,,002,002,2025-04-27_15h45.02.276,Cued GoNogo Task,2024.2.4,59.97123779177414,2025-04-27 15h45.13.713418 +0200,
block/CondBlock1.xlsx,You are about to start a block of type 1 trials.,67,67,0,Go,Go,0.29,0.2,0.05,space,green,vertical,space,2.018521999998484,None,space,1,0.25881639996077865,None,,,,0,0,0,0,0,67,67,67,255.37004349997733,,,,,,,,,,,,,,,,255.35434449999593,255.37004349997733,256.06949939997867,256.06949939997867,256.5689197999891,256.5528362999903,256.5532783999806,256.5689197999891,256.868839200004,257.0521075000288,257.0521075000288,257.3196479000035,space,1,0.25881639996077865,None,257.32374149997486,257.8348387000151,258.83386730001075,258.81794739997713,,,,,,,,,,,,,,,,,002,002,2025-04-27_15h45.02.276,Cued GoNogo Task,2024.2.4,59.97123779177414,2025-04-27 15h45.13.713418 +0200,
block/CondBlock1.xlsx,You are about to start a block of type 1 trials.,68,68,0,NoGo,NoGo,0.24,0.2,0.05,none,blue,vertical,space,2.018521999998484,None,None,1,,,,,,0,0,0,0,0,68,68,68,258.83386730001075,,,,,,,,,,,,,,,,258.81825549999485,258.83386730001075,259.53338979999535,259.53338979999535,260.0329041000223,260.01705050002784,260.0177913000225,260.0329041000223,260.28281310002785,260.46583140001167,260.46583140001167,260.94958369998494,None,1,,,260.95220070000505,261.4651771999779,262.4642524999799,262.4482948000077,260.96552299999166,260.96552299999166,,,,,,,,,,,,,,,002,002,2025-04-27_15h45.02.276,Cued GoNogo Task,2024.2.4,59.97123779177414,2025-04-27 15h45.13.713418 +0200,
block/CondBlock1.xlsx,You are about to start a block of type 1 trials.,69,69,0,Go,Go,0.27,0.05,0.2,space,green,horizontal,space,2.018521999998484,None,space,1,0.14917980000609532,None,,,,0,0,0,0,0,69,69,69,262.4642524999799,,,,,,,,,,,,,,,,262.4485423999722,262.4642524999799,263.16371079999954,263.16371079999954,263.66340860002674,263.64762730000075,263.648389399983,263.66340860002674,263.9463209999958,264.12963390001096,264.12963390001096,264.28172949998407,space,1,0.14917980000609532,None,264.2881414000294,264.79564149997896,265.7948738000123,265.7791970000253,,,,,,,,,,,,,,,,,002,002,2025-04-27_15h45.02.276,Cued GoNogo Task,2024.2.4,59.97123779177414,2025-04-27 15h45.13.713418 +0200,
block/CondBlock1.xlsx,You are about to start a block of type 1 trials.,70,70,0,Go,Go,0.25,0.2,0.05,space,green,vertical,space,2.018521999998484,None,space,1,0.38751929998397827,None,,,,0,0,0,0,0,70,70,70,265.7948738000123,,,,,,,,,,,,,,,,265.77956559997983,265.7948738000123,266.494322500017,266.494322500017,266.993843299977,266.9777972000302,266.9784049000009,266.993843299977,267.2436940000043,267.443502500013,267.443502500013,267.84432550001657,space,1,0.38751929998397827,None,267.8487600000226,268.35954869998386,269.358435800008,269.34253780002473,,,,,,,,,,,,,,,,,002,002,2025-04-27_15h45.02.276,Cued GoNogo Task,2024.2.4,59.97123779177414,2025-04-27 15h45.13.713418 +0200,
block/CondBlock1.xlsx,You are about to start a block of type 1 trials.,71,71,0,Go,Go,0.28,0.05,0.2,space,green,horizontal,space,2.018521999998484,None,space,1,0.3432172000175342,None,,,,0,0,0,0,0,71,71,71,269.358435800008,,,,,,,,,,,,,,,,269.34301589999814,269.358435800008,270.05824929999653,270.05824929999653,270.55770459998166,270.5418879999779,270.5426002999884,270.55770459998166,270.84064589999616,271.023727199994,271.023727199994,271.3754095999757,space,1,0.3432172000175342,None,271.3814955999842,271.88991259998875,272.8890867999871,272.87311950000003,,,,,,,,,,,,,,,,,002,002,2025-04-27_15h45.02.276,Cued GoNogo Task,2024.2.4,59.97123779177414,2025-04-27 15h45.13.713418 +0200,
block/CondBlock1.xlsx,You are about to start a block of type 1 trials.,72,72,0,Go,Go,0.14,0.05,0.2,space,blue,horizontal,space,2.018521999998484,None,space,1,0.23272569995606318,None,,,,0,0,0,0,0,72,72,72,272.8890867999871,,,,,,,,,,,,,,,,272.87343999999575,272.8890867999871,273.5883650999749,273.5883650999749,274.08805139997276,274.0721277000266,274.07274929998675,274.08805139997276,274.23791919997893,274.4210805000039,274.4210805000039,274.65656289999606,space,1,0.23272569995606318,None,274.66158449999057,275.170473199978,276.1695409999811,276.15371609997237,,,,,,,,,,,,,,,,,002,002,2025-04-27_15h45.02.276,Cued GoNogo Task,2024.2.4,59.97123779177414,2025-04-27 15h45.13.713418 +0200,
block/CondBlock1.xlsx,You are about to start a block of type 1 trials.,73,73,0,Go,Go,0.11,0.05,0.2,space,blue,horizontal,space,2.018521999998484,None,space,1,0.24235210003098473,None,,,,0,0,0,0,0,73,73,73,276.1695409999811,,,,,,,,,,,,,,,,276.1540884000133,276.1695409999811,276.86890010000207,276.86890010000207,277.36854830000084,277.35261770000216,277.3531963999849,277.36854830000084,277.48511920002056,277.66857899999013,277.66857899999013,277.919717199984,space,1,0.24235210003098473,None,277.92542799998773,278.43449319998035,279.4335363000282,279.4177703000023,,,,,,,,,,,,,,,,,002,002,2025-04-27_15h45.02.276,Cued GoNogo Task,2024.2.4,59.97123779177414,2025-04-27 15h45.13.713418 +0200,
block/CondBlock1.xlsx,You are about to start a block of type 1 trials.,74,74,0,Go,Go,0.22,0.2,0.05,space,blue,vertical,space,2.018521999998484,None,space,1,0.2776190000004135,None,,,,0,0,0,0,0,74,74,74,279.4335363000282,,,,,,,,,,,,,,,,279.41806230001384,279.4335363000282,280.1331180999987,280.1331180999987,280.6326355999918,280.6169590000063,280.6176916999975,280.6326355999918,280.86571809998713,281.04900749999797,281.04900749999797,281.3334626000142,space,1,0.2776190000004135,None,281.3379483000026,281.84823930001585,282.847591000027,282.8315254999907,,,,,,,,,,,,,,,,,002,002,2025-04-27_15h45.02.276,Cued GoNogo Task,2024.2.4,59.97123779177414,2025-04-27 15h45.13.713418 +0200,
block/CondBlock1.xlsx,You are about to start a block of type 1 trials.,75,75,0,Go,Go,0.26,0.05,0.2,space,blue,horizontal,space,2.018521999998484,None,space,1,0.24659799999790266,None,,,,0,0,0,0,0,75,75,75,282.847591000027,,,,,,,,,,,,,,,,282.83177759998944,282.847591000027,283.5466725999722,283.5466725999722,284.0464408000116,284.03035570000065,284.030848400027,284.0464408000116,284.3127993000089,284.49613789998693,284.49613789998693,284.74724210001295,space,1,0.24659799999790266,None,284.75077420001617,285.26220449997345,286.2614654999925,286.2453658999875,,,,,,,,,,,,,,,,,002,002,2025-04-27_15h45.02.276,Cued GoNogo Task,2024.2.4,59.97123779177414,2025-04-27 15h45.13.713418 +0200,
block/CondBlock1.xlsx,You are about to start a block of type 1 trials.,76,76,0,Go,Go,0.14,0.2,0.05,space,green,vertical,space,2.018521999998484,None,space,1,0.2689339999924414,None,,,,0,0,0,0,0,76,76,76,286.2614654999925,,,,,,,,,,,,,,,,286.24561240000185,286.2614654999925,286.96075580001343,286.96075580001343,287.4604209000245,287.44479360000696,287.44568669999717,287.4604209000245,287.61016610002844,287.793361500022,287.793361500022,288.07758099999046,space,1,0.2689339999924414,None,288.0818922999897,288.5926424000063,289.5920491000288,289.57619809999596,,,,,,,,,,,,,,,,,002,002,2025-04-27_15h45.02.276,Cued GoNogo Task,2024.2.4,59.97123779177414,2025-04-27 15h45.13.713418 +0200,
block/CondBlock1.xlsx,You are about to start a block of type 1 trials.,77,77,0,Go,Go,0.18,0.05,0.2,space,green,horizontal,space,2.018521999998484,None,space,1,0.23324599995976314,None,,,,0,0,0,0,0,77,77,77,289.5920491000288,,,,,,,,,,,,,,,,289.5765137000126,289.5920491000288,290.29141760000493,290.29141760000493,290.79102070000954,290.7752149999724,290.7759894999908,290.79102070000954,290.9741331000114,291.157332999981,291.157332999981,291.39348069997504,space,1,0.23324599995976314,None,291.39869629999157,291.9066357000265,292.905877400015,292.8902235000278,,,,,,,,,,,,,,,,,002,002,2025-04-27_15h45.02.276,Cued GoNogo Task,2024.2.4,59.97123779177414,2025-04-27 15h45.13.713418 +0200,
block/CondBlock1.xlsx,You are about to start a block of type 1 trials.,78,78,0,NoGo,NoGo,0.27,0.05,0.2,none,blue,horizontal,space,2.018521999998484,None,space,0,0.22702699998626485,None,,,,0,0,0,0,0,78,78,78,292.905877400015,,,,,,,,,,,,,,,,292.8905608999776,292.905877400015,293.60522670001956,293.60522670001956,294.1049080999801,294.0894835999934,294.09046350000426,294.1049080999801,294.388175399974,294.57140439999057,294.57140439999057,294.80599060002714,space,0,0.22702699998626485,None,294.8115161000169,295.3207457999815,296.31966889998876,296.30409559997497,,,,,,,,,,,,,,,,,002,002,2025-04-27_15h45.02.276,Cued GoNogo Task,2024.2.4,59.97123779177414,2025-04-27 15h45.13.713418 +0200,
block/CondBlock1.xlsx,You are about to start a block of type 1 trials.,79,79,0,NoGo,NoGo,0.26,0.2,0.05,none,blue,vertical,space,2.018521999998484,None,None,1,,,,,,0,0,0,0,0,79,79,79,296.31966889998876,,,,,,,,,,,,,,,,296.30442739999853,296.31966889998876,297.0190921999747,297.0190921999747,297.5189377000206,297.5029621000285,297.50363110000035,297.5189377000206,297.78510019998066,297.9684706000262,297.9684706000262,298.45216320001055,None,1,,,298.4550166000263,298.96758150000824,299.9667345000198,299.9510399000137,298.468096000026,298.468096000026,,,,,,,,,,,,,,,002,002,2025-04-27_15h45.02.276,Cued GoNogo Task,2024.2.4,59.97123779177414,2025-04-27 15h45.13.713418 +0200,
block/CondBlock1.xlsx,You are about to start a block of type 1 trials.,80,80,0,Go,Go,0.22,0.2,0.05,space,green,vertical,space,2.018521999998484,None,space,1,0.42495339998276904,None,,,,0,0,0,0,0,80,80,80,299.9667345000198,,,,,,,,,,,,,,,,299.95140489999903,299.9667345000198,300.6663052000222,300.6663052000222,301.1659056000062,301.1497987000039,301.15043340000557,301.1659056000062,301.3988973000087,301.5822219999973,301.5822219999973,302.01622689998476,space,1,0.42495339998276904,None,302.02055309998104,302.5313855999848,303.5303867000039,303.514510900015,,,,,,,,,,,,,,,,,002,002,2025-04-27_15h45.02.276,Cued GoNogo Task,2024.2.4,59.97123779177414,2025-04-27 15h45.13.713418 +0200,
block/CondBlock1.xlsx,You are about to start a block of type 1 trials.,81,81,0,Go,Go,0.5,0.2,0.05,space,green,vertical,space,2.018521999998484,None,space,1,0.3853784999810159,None,,,,0,0,0,0,0,81,81,81,303.5303867000039,,,,,,,,,,,,,,,,303.5147833999945,303.5303867000039,304.22996050002985,304.22996050002985,304.72953539999435,304.7135923000169,304.7142537999898,304.72953539999435,305.22915169998305,305.42895410000347,305.42895410000347,305.8297565000248,space,1,0.3853784999810159,None,305.8333665999817,306.3448549999739,307.34403550002025,307.32802529999753,,,,,,,,,,,,,,,,,002,002,2025-04-27_15h45.02.276,Cued GoNogo Task,2024.2.4,59.97123779177414,2025-04-27 15h45.13.713418 +0200,
block/CondBlock1.xlsx,You are about to start a block of type 1 trials.,82,82,0,Go,Go,0.43,0.05,0.2,space,green,horizontal,space,2.018521999998484,None,space,1,0.2707785000093281,None,,,,0,0,0,0,0,82,82,82,307.34403550002025,,,,,,,,,,,,,,,,307.328304500028,307.34403550002025,308.04348629998276,308.04348629998276,308.5430525999982,308.52737209998304,308.5280335000134,308.5430525999982,308.9759594000061,309.1592112000217,309.1592112000217,309.44373080000514,space,1,0.2707785000093281,None,309.44829779997235,309.95851979998406,310.9576777999755,310.94177299999865,,,,,,,,,,,,,,,,,002,002,2025-04-27_15h45.02.276,Cued GoNogo Task,2024.2.4,59.97123779177414,2025-04-27 15h45.13.713418 +0200,
block/CondBlock1.xlsx,You are about to start a block of type 1 trials.,83,83,0,Go,Go,0.25,0.2,0.05,space,green,vertical,space,2.018521999998484,None,space,1,0.19288639997830614,None,,,,0,0,0,0,0,83,83,83,310.9576777999755,,,,,,,,,,,,,,,,310.94205710000824,310.9576777999755,311.6571597000002,311.6571597000002,312.156564600009,312.1406446999754,312.14118839998264,312.156564600009,312.40649409999605,312.6063342000125,312.6063342000125,312.80779960000655,space,1,0.19288639997830614,None,312.81259200000204,313.32247999997344,314.3215708999778,314.3055380000151,,,,,,,,,,,,,,,,,002,002,2025-04-27_15h45.02.276,Cued GoNogo Task,2024.2.4,59.97123779177414,2025-04-27 15h45.13.713418 +0200,
block/CondBlock1.xlsx,You are about to start a block of type 1 trials.,84,84,0,NoGo,NoGo,0.14,0.2,0.05,none,green,vertical,space,2.018521999998484,None,None,1,,,,,,0,0,0,0,0,84,84,84,314.3215708999778,,,,,,,,,,,,,,,,314.30580119998194,314.3215708999778,315.02094509999733,315.02094509999733,315.52070960000856,315.50524189998396,315.50601660000393,315.52070960000856,315.67047359998105,315.8536408999935,315.8536408999935,316.3372019000235,None,1,,,316.3395676999935,316.83609100000467,317.8354383999831,317.81972560001304,316.35344719997374,316.35344719997374,,,,,,,,,,,,,,,002,002,2025-04-27_15h45.02.276,Cued GoNogo Task,2024.2.4,59.97123779177414,2025-04-27 15h45.13.713418 +0200,
block/CondBlock1.xlsx,You are about to start a block of type 1 trials.,85,85,0,Go,Go,0.2,0.05,0.2,space,blue,horizontal,space,2.018521999998484,None,space,1,0.26872469997033477,None,,,,0,0,0,0,0,85,85,85,317.8354383999831,,,,,,,,,,,,,,,,317.82008929998847,317.8520033999812,318.55148919997737,318.55148919997737,319.0511443000287,319.03498039999977,319.03562290000264,319.0511443000287,319.25097220001044,319.4507954000146,319.4507954000146,319.7351550000021,space,1,0.26872469997033477,None,319.73941979999654,320.2501510999864,321.249270899978,321.2337379999808,,,,,,,,,,,,,,,,,002,002,2025-04-27_15h45.02.276,Cued GoNogo Task,2024.2.4,59.97123779177414,2025-04-27 15h45.13.713418 +0200,
block/CondBlock1.xlsx,You are about to start a block of type 1 trials.,86,86,0,Go,Go,0.16,0.2,0.05,space,blue,vertical,space,2.018521999998484,None,space,1,0.30522300000302494,None,,,,0,0,0,0,0,86,86,86,321.249270899978,,,,,,,,,,,,,,,,321.23413120000623,321.249270899978,321.9487541000126,321.9487541000126,322.4482506000204,322.4325270000263,322.4332841000287,322.4482506000204,322.6147455999744,322.7979142999975,322.7979142999975,323.1155809999909,space,1,0.30522300000302494,None,323.1202898999909,323.6305898000137,324.629955100012,324.613952899992,,,,,,,,,,,,,,,,,002,002,2025-04-27_15h45.02.276,Cued GoNogo Task,2024.2.4,59.97123779177414,2025-04-27 15h45.13.713418 +0200,
block/CondBlock1.xlsx,You are about to start a block of type 1 trials.,87,87,0,Go,Go,0.41,0.2,0.05,space,green,vertical,space,2.018521999998484,None,space,1,0.26656320004258305,None,,,,0,0,0,0,0,87,87,87,324.629955100012,,,,,,,,,,,,,,,,324.61420429998543,324.629955100012,325.32926790002966,325.32926790002966,325.82883870002115,325.81318810000084,325.8139605000033,325.82883870002115,326.2451554000145,326.42827370000305,326.42827370000305,326.6970154999872,space,1,0.26656320004258305,None,326.7033200999722,327.2110135999974,328.2101603000192,328.19432870001765,,,,,,,,,,,,,,,,,002,002,2025-04-27_15h45.02.276,Cued GoNogo Task,2024.2.4,59.97123779177414,2025-04-27 15h45.13.713418 +0200,
block/CondBlock1.xlsx,You are about to start a block of type 1 trials.,88,88,0,NoGo,NoGo,0.15,0.2,0.05,none,green,vertical,space,2.018521999998484,None,space,0,0.27987869997741655,None,,,,0,0,0,0,0,88,88,88,328.2101603000192,,,,,,,,,,,,,,,,328.1946014999994,328.2101603000192,328.90970279998146,328.90970279998146,329.4091075999895,329.3931154999882,329.39370399998734,329.4091075999895,329.5591114999843,329.7588696000166,329.7588696000166,330.0430980999954,space,0,0.27987869997741655,None,330.04795510001713,330.5582065000199,331.55750509997597,331.5415007999982,,,,,,,,,,,,,,,,,002,002,2025-04-27_15h45.02.276,Cued GoNogo Task,2024.2.4,59.97123779177414,2025-04-27 15h45.13.713418 +0200,
block/CondBlock1.xlsx,You are about to start a block of type 1 trials.,89,89,0,Go,Go,0.24,0.05,0.2,space,blue,horizontal,space,2.018521999998484,None,space,1,0.24919549998594448,None,,,,0,0,0,0,0,89,89,89,331.55750509997597,,,,,,,,,,,,,,,,331.5418084000121,331.55750509997597,332.2569372000289,332.2569372000289,332.75637100002496,332.74031830002787,332.7409101999947,332.75637100002496,333.0062783000176,333.1895566000021,333.1895566000021,333.4422434999724,space,1,0.24919549998594448,None,333.4460773000028,333.9555332000018,334.9545127999736,334.9388632000191,,,,,,,,,,,,,,,,,002,002,2025-04-27_15h45.02.276,Cued GoNogo Task,2024.2.4,59.97123779177414,2025-04-27 15h45.13.713418 +0200,
block/CondBlock1.xlsx,You are about to start a block of type 1 trials.,90,90,0,Go,Go,0.25,0.2,0.05,space,blue,vertical,space,2.018521999998484,None,space,1,0.3309212999884039,None,,,,0,0,0,0,0,90,90,90,334.9545127999736,,,,,,,,,,,,,,,,334.93921759998193,334.9545127999736,335.65414930001134,335.65414930001134,336.1537711999845,336.13789249997353,336.1386576999794,336.1537711999845,336.4035368000041,336.60340939997695,336.60340939997695,336.937831200019,space,1,0.3309212999884039,None,336.9437475000159,337.4526719999849,338.45167749997927,338.4360478000017,,,,,,,,,,,,,,,,,002,002,2025-04-27_15h45.02.276,Cued GoNogo Task,2024.2.4,59.97123779177414,2025-04-27 15h45.13.713418 +0200,
block/CondBlock1.xlsx,You are about to start a block of type 1 trials.,91,91,0,Go,Go,0.26,0.05,0.2,space,green,horizontal,space,2.018521999998484,None,space,1,0.2743346000206657,None,,,,0,0,0,0,0,91,91,91,338.45167749997927,,,,,,,,,,,,,,,,338.4363516999874,338.45167749997927,339.1511003000196,339.1511003000196,339.650882499991,339.6349746999913,339.63567649998004,339.650882499991,339.9171190999914,340.1003731000237,340.1003731000237,340.3851358999964,space,1,0.2743346000206657,None,340.38993120001396,340.899574399984,341.8989586000098,341.8830771999783,,,,,,,,,,,,,,,,,002,002,2025-04-27_15h45.02.276,Cued GoNogo Task,2024.2.4,59.97123779177414,2025-04-27 15h45.13.713418 +0200,
block/CondBlock1.xlsx,You are about to start a block of type 1 trials.,92,92,0,NoGo,NoGo,0.44,0.2,0.05,none,blue,vertical,space,2.018521999998484,None,space,0,0.3088586999801919,None,,,,0,0,0,0,0,92,92,92,341.8989586000098,,,,,,,,,,,,,,,,341.88342690002173,341.8989586000098,342.5982440999942,342.5982440999942,343.09792600001674,343.0821086000069,343.08275320002576,343.09792600001674,343.5475597999757,343.7307071000105,343.7307071000105,344.04839080001693,space,0,0.3088586999801919,None,344.05312860000413,344.5634891000227,345.5625632000156,345.54711809998844,,,,,,,,,,,,,,,,,002,002,2025-04-27_15h45.02.276,Cued GoNogo Task,2024.2.4,59.97123779177414,2025-04-27 15h45.13.713418 +0200,
block/CondBlock1.xlsx,You are about to start a block of type 1 trials.,93,93,0,Go,Go,0.13,0.2,0.05,space,green,vertical,space,2.018521999998484,None,space,1,0.3768962000031024,None,,,,0,0,0,0,0,93,93,93,345.5625632000156,,,,,,,,,,,,,,,,345.54745439998806,345.5625632000156,346.26214890001575,346.26214890001575,346.7616828000173,346.74585690000094,346.7465578999836,346.7616828000173,346.894750699983,347.07785760000115,347.07785760000115,347.462554000027,space,1,0.3768962000031024,None,347.4663894000114,347.97728470002767,348.976468799985,348.96046650002245,,,,,,,,,,,,,,,,,002,002,2025-04-27_15h45.02.276,Cued GoNogo Task,2024.2.4,59.97123779177414,2025-04-27 15h45.13.713418 +0200,
block/CondBlock1.xlsx,You are about to start a block of type 1 trials.,94,94,0,Go,Go,0.44,0.05,0.2,space,blue,horizontal,space,2.018521999998484,None,space,1,0.4146879999898374,None,,,,0,0,0,0,0,94,94,94,348.976468799985,,,,,,,,,,,,,,,,348.960774999985,348.976468799985,349.67582770000445,349.67582770000445,350.175426199974,350.1598522000131,350.16065229999367,350.175426199974,350.6249857000075,350.8082858999842,350.8082858999842,351.2262901000213,space,1,0.4146879999898374,None,351.23126159998355,351.74105730000883,352.7401107000187,352.7243108000257,,,,,,,,,,,,,,,,,002,002,2025-04-27_15h45.02.276,Cued GoNogo Task,2024.2.4,59.97123779177414,2025-04-27 15h45.13.713418 +0200,
block/CondBlock1.xlsx,You are about to start a block of type 1 trials.,95,95,0,Go,Go,0.15,0.2,0.05,space,green,vertical,space,2.018521999998484,None,space,1,0.2857990000047721,None,,,,0,0,0,0,0,95,95,95,352.7401107000187,,,,,,,,,,,,,,,,352.72462090000045,352.7401107000187,353.4394430000102,353.4394430000102,353.93913349998184,353.92288239998743,353.9234022999881,353.93913349998184,354.0889705999871,354.28883550001774,354.28883550001774,354.5896721999743,space,1,0.2857990000047721,None,354.5947419999866,355.1046835000161,356.1040339000174,356.087501699978,,,,,,,,,,,,,,,,,002,002,2025-04-27_15h45.02.276,Cued GoNogo Task,2024.2.4,59.97123779177414,2025-04-27 15h45.13.713418 +0200,
block/CondBlock1.xlsx,You are about to start a block of type 1 trials.,96,96,0,Go,Go,0.49,0.2,0.05,space,green,vertical,space,2.018521999998484,None,space,1,0.3166675000102259,None,,,,0,0,0,0,0,96,96,96,356.1040339000174,,,,,,,,,,,,,,,,356.08772930002306,356.1040339000174,356.80337280000094,356.80337280000094,357.3028802999761,357.2870149000082,357.28767350001726,357.3028802999761,357.8023707999964,357.9859334999928,357.9859334999928,358.3196196000208,space,1,0.3166675000102259,None,358.32382869999856,358.8348133999971,359.83402489998844,359.81828529998893,,,,,,,,,,,,,,,,,002,002,2025-04-27_15h45.02.276,Cued GoNogo Task,2024.2.4,59.97123779177414,2025-04-27 15h45.13.713418 +0200,
block/CondBlock1.xlsx,You are about to start a block of type 1 trials.,97,97,0,Go,Go,0.11,0.2,0.05,space,blue,vertical,space,2.018521999998484,None,space,1,0.3294055000296794,None,,,,0,0,0,0,0,97,97,97,359.83402489998844,,,,,,,,,,,,,,,,359.81859959999565,359.83402489998844,360.5335513000027,360.5335513000027,361.0332000000053,361.0175206999993,361.0182963000261,361.0332000000053,361.14965209999355,361.3330124000204,361.3330124000204,361.6672368000145,space,1,0.3294055000296794,None,361.6710244999849,362.1823480000021,363.18158540001605,363.16536530002486,,,,,,,,,,,,,,,,,002,002,2025-04-27_15h45.02.276,Cued GoNogo Task,2024.2.4,59.97123779177414,2025-04-27 15h45.13.713418 +0200,
block/CondBlock1.xlsx,You are about to start a block of type 1 trials.,98,98,0,Go,Go,0.26,0.05,0.2,space,green,horizontal,space,2.018521999998484,None,space,1,0.22483720001764596,None,,,,0,0,0,0,0,98,98,98,363.18158540001605,,,,,,,,,,,,,,,,363.1656292999978,363.18158540001605,363.8808188000112,363.8808188000112,364.3803478999762,364.36462880001636,364.36562860000413,364.3803478999762,364.64679209998576,364.83013750001555,364.83013750001555,365.0644816000131,space,1,0.22483720001764596,None,365.0686041000299,365.57948810001835,366.57847960002255,366.5629675000091,,,,,,,,,,,,,,,,,002,002,2025-04-27_15h45.02.276,Cued GoNogo Task,2024.2.4,59.97123779177414,2025-04-27 15h45.13.713418 +0200,
block/CondBlock1.xlsx,You are about to start a block of type 1 trials.,99,99,0,Go,Go,0.28,0.05,0.2,space,green,horizontal,space,2.018521999998484,None,space,1,0.3059508000151254,None,,,,0,0,0,0,0,99,99,99,366.57847960002255,,,,,,,,,,,,,,,,366.5633034000057,366.57847960002255,367.2780435999739,367.2780435999739,367.7776664000121,367.76179359998787,367.7625325000263,367.7776664000121,368.060762899986,368.24410640000133,368.24410640000133,368.5615591999958,space,1,0.3059508000151254,None,368.5655993000255,369.07658340001944,370.07564080000157,370.0601456000004,,,,,,,,,,,,,,,,,002,002,2025-04-27_15h45.02.276,Cued GoNogo Task,2024.2.4,59.97123779177414,2025-04-27 15h45.13.713418 +0200,
block/CondBlock1.xlsx,You are about to start a block of type 1 trials.,0,0,0,,,,,,,,,space,2.018521999998484,None,,,,,space,262.7077708999859,None,0,0,0,0,,,,,,,,,,,,,,,,,,,,,,,,,,,,,,,,,,,,,,,,,,,370.07273640000494,370.07564080000157,370.07564080000157,632.7949130000197,space,262.7077708999859,None,,,,,,,,002,002,2025-04-27_15h45.02.276,Cued GoNogo Task,2024.2.4,59.97123779177414,2025-04-27 15h45.13.713418 +0200,
block/CondBlock2.xlsx,You are about to start a block of type 2 trials.,0,0,0,Go,Go,0.18,0.05,0.2,space,green,horizontal,space,1.0685383999953046,None,space,1,0.268011000007391,None,,,,0,1,1,1,0,0,0,0,633.9118746999884,,,,,,,,,632.8009364000172,632.8097162999911,632.8097162999911,633.8932942000101,space,1.0685383999953046,None,633.9098536000238,633.9118746999884,634.60832509998,634.6247907999787,635.1077824999811,635.0916838999838,635.092582000012,635.1077824999811,635.2910313999746,635.4743142999941,635.4743142999941,635.7586635000189,space,1,0.268011000007391,None,635.7645851999987,636.2734434999875,637.272865100007,637.2566698999726,,,,,,,,,,,,,,,,,002,002,2025-04-27_15h45.02.276,Cued GoNogo Task,2024.2.4,59.97123779177414,2025-04-27 15h45.13.713418 +0200,
block/CondBlock2.xlsx,You are about to start a block of type 2 trials.,1,1,0,Go,Go,0.2,0.2,0.05,space,green,vertical,space,1.0685383999953046,None,space,1,0.23948510002810508,None,,,,0,1,1,1,0,1,1,1,637.272865100007,,,,,,,,,,,,,,,,637.256898600026,637.272865100007,637.9721648999839,637.9721648999839,638.4717234999989,638.455911899975,638.456838699989,638.4717234999989,638.6715513999807,638.8713927000063,638.8713927000063,639.1224867000128,space,1,0.23948510002810508,None,639.1260486000101,639.6373014000128,640.6365768000251,640.6209482999984,,,,,,,,,,,,,,,,,002,002,2025-04-27_15h45.02.276,Cued GoNogo Task,2024.2.4,59.97123779177414,2025-04-27 15h45.13.713418 +0200,
block/CondBlock2.xlsx,You are about to start a block of type 2 trials.,2,2,0,Go,Go,0.22,0.05,0.2,space,blue,horizontal,space,1.0685383999953046,None,space,1,0.36307240003952757,None,,,,0,1,1,1,0,2,2,2,640.6365768000251,,,,,,,,,,,,,,,,640.6212669999804,640.6365768000251,641.3359535000054,641.3359535000054,641.8356104000122,641.8194861999946,641.8200259999721,641.8356104000122,642.0688846000121,642.2518799999962,642.2518799999962,642.6200244000065,space,1,0.36307240003952757,None,642.6261429999722,643.1345900999731,644.1337119999807,644.118174800009,,,,,,,,,,,,,,,,,002,002,2025-04-27_15h45.02.276,Cued GoNogo Task,2024.2.4,59.97123779177414,2025-04-27 15h45.13.713418 +0200,
block/CondBlock2.xlsx,You are about to start a block of type 2 trials.,3,3,0,Go,Go,0.14,0.05,0.2,space,green,horizontal,space,1.0685383999953046,None,space,1,0.30948940000962466,None,,,,0,1,1,1,0,3,3,3,644.1337119999807,,,,,,,,,,,,,,,,644.118578900001,644.1337119999807,644.8329914999777,644.8329914999777,645.3327573999995,645.3169700999861,645.3178303000168,645.3327573999995,645.4826389999944,645.6658011000254,645.6658011000254,645.9832789999782,space,1,0.30948940000962466,None,645.9872303999728,646.4984231999842,647.497695899976,647.4816396000097,,,,,,,,,,,,,,,,,002,002,2025-04-27_15h45.02.276,Cued GoNogo Task,2024.2.4,59.97123779177414,2025-04-27 15h45.13.713418 +0200,
block/CondBlock2.xlsx,You are about to start a block of type 2 trials.,4,4,0,Go,Go,0.26,0.05,0.2,space,blue,horizontal,space,1.0685383999953046,None,space,1,0.44468650000635535,None,,,,0,1,1,1,0,4,4,4,647.497695899976,,,,,,,,,,,,,,,,647.4819732999895,647.497695899976,648.1970156999887,648.1970156999887,648.6967861999874,648.6810142999748,648.6817225000123,648.6967861999874,648.9631778000039,649.1462496999884,649.1462496999884,649.5970203999896,space,1,0.44468650000635535,None,649.6015202000272,650.1122125000111,651.1115160000045,651.0955246000085,,,,,,,,,,,,,,,,,002,002,2025-04-27_15h45.02.276,Cued GoNogo Task,2024.2.4,59.97123779177414,2025-04-27 15h45.13.713418 +0200,
block/CondBlock2.xlsx,You are about to start a block of type 2 trials.,5,5,0,Go,Go,0.1,0.05,0.2,space,blue,horizontal,space,1.0685383999953046,None,space,1,0.22894810000434518,None,,,,0,1,1,1,0,5,5,5,651.1115160000045,,,,,,,,,,,,,,,,651.0959003000171,651.1115160000045,651.8107061000192,651.8107061000192,652.3102873999742,652.2944990000105,652.2952239000006,652.3102873999742,652.4101913999766,652.6100563000073,652.6100563000073,652.8445284999907,space,1,0.22894810000434518,None,652.8485669000074,653.3593358999933,654.3584699999774,654.3428702999954,,,,,,,,,,,,,,,,,002,002,2025-04-27_15h45.02.276,Cued GoNogo Task,2024.2.4,59.97123779177414,2025-04-27 15h45.13.713418 +0200,
block/CondBlock2.xlsx,You are about to start a block of type 2 trials.,6,6,0,NoGo,NoGo,0.3,0.2,0.05,none,green,vertical,space,1.0685383999953046,None,None,1,,,,,,0,1,1,1,0,6,6,6,654.3584699999774,,,,,,,,,,,,,,,,654.3432114999741,654.3584699999774,655.0579921000171,655.0579921000171,655.557699099998,655.5417186000268,655.5424128000159,655.557699099998,655.8574473999906,656.0573628999991,656.0573628999991,656.5408748000045,None,1,,,656.5432670000009,657.0563994999975,658.0555099999765,658.039618699986,656.5566503999871,656.5566503999871,,,,,,,,,,,,,,,002,002,2025-04-27_15h45.02.276,Cued GoNogo Task,2024.2.4,59.97123779177414,2025-04-27 15h45.13.713418 +0200,
block/CondBlock2.xlsx,You are about to start a block of type 2 trials.,7,7,0,NoGo,NoGo,0.14,0.05,0.2,none,blue,horizontal,space,1.0685383999953046,None,space,0,0.21874620002927259,None,,,,0,1,1,1,0,7,7,7,658.0555099999765,,,,,,,,,,,,,,,,658.0400051000179,658.0555099999765,658.7548395000049,658.7548395000049,659.2544030999998,659.2381610000157,659.2386877000099,659.2544030999998,659.4044437999837,659.5874974000035,659.5874974000035,659.8219919999829,space,0,0.21874620002927259,None,659.8276443000068,660.337068199995,661.3360007000156,661.3202058000024,,,,,,,,,,,,,,,,,002,002,2025-04-27_15h45.02.276,Cued GoNogo Task,2024.2.4,59.97123779177414,2025-04-27 15h45.13.713418 +0200,
block/CondBlock2.xlsx,You are about to start a block of type 2 trials.,8,8,0,Go,Go,0.13,0.2,0.05,space,blue,vertical,space,1.0685383999953046,None,space,1,0.3467126999748871,None,,,,0,1,1,1,0,8,8,8,661.3360007000156,,,,,,,,,,,,,,,,661.3205332999933,661.3360007000156,662.035730500007,662.035730500007,662.5351591000217,662.519353199983,662.5200767000206,662.5351591000217,662.6683982000104,662.8516965999734,662.8516965999734,663.2031642000074,space,1,0.3467126999748871,None,663.2071215999895,663.717576999974,664.71678170003,664.7009823999833,,,,,,,,,,,,,,,,,002,002,2025-04-27_15h45.02.276,Cued GoNogo Task,2024.2.4,59.97123779177414,2025-04-27 15h45.13.713418 +0200,
block/CondBlock2.xlsx,You are about to start a block of type 2 trials.,9,9,0,Go,Go,0.43,0.2,0.05,space,green,vertical,space,1.0685383999953046,None,space,1,0.4099646999966353,None,,,,0,1,1,1,0,9,9,9,664.71678170003,,,,,,,,,,,,,,,,664.701364699984,664.71678170003,665.4162341000047,665.4162341000047,665.9157797999796,665.8997876999783,665.9004827999743,665.9157797999796,666.3487900000182,666.5487208000268,666.5487208000268,666.9663404999883,space,1,0.4099646999966353,None,666.9713788999943,667.4812876000069,668.4803246000083,668.4648175999755,,,,,,,,,,,,,,,,,002,002,2025-04-27_15h45.02.276,Cued GoNogo Task,2024.2.4,59.97123779177414,2025-04-27 15h45.13.713418 +0200,
block/CondBlock2.xlsx,You are about to start a block of type 2 trials.,10,10,0,Go,Go,0.14,0.2,0.05,space,green,vertical,space,1.0685383999953046,None,space,1,0.4333902000216767,None,,,,0,1,1,1,0,10,10,10,668.4803246000083,,,,,,,,,,,,,,,,668.4652665000176,668.4803246000083,669.1799364999752,669.1799364999752,669.6793446000083,669.6632940000272,669.6638734000153,669.6793446000083,669.8292022999958,670.0124633000232,670.0124633000232,670.4629428000189,space,1,0.4333902000216767,None,670.4665804000106,670.9782424999867,671.9775982000283,671.9616141000297,,,,,,,,,,,,,,,,,002,002,2025-04-27_15h45.02.276,Cued GoNogo Task,2024.2.4,59.97123779177414,2025-04-27 15h45.13.713418 +0200,
block/CondBlock2.xlsx,You are about to start a block of type 2 trials.,11,11,0,Go,Go,0.27,0.2,0.05,space,green,vertical,space,1.0685383999953046,None,space,1,0.2515636999742128,None,,,,0,1,1,1,0,11,11,11,671.9775982000283,,,,,,,,,,,,,,,,671.9620333000203,671.9775982000283,672.677048499987,672.677048499987,673.1765537000028,673.160687799973,673.1616514999769,673.1765537000028,673.4595641000196,673.6427768000285,673.6427768000285,673.9104890999733,space,1,0.2515636999742128,None,673.9152151999879,674.4254794000299,675.4245164999738,675.4091594999772,,,,,,,,,,,,,,,,,002,002,2025-04-27_15h45.02.276,Cued GoNogo Task,2024.2.4,59.97123779177414,2025-04-27 15h45.13.713418 +0200,
block/CondBlock2.xlsx,You are about to start a block of type 2 trials.,12,12,0,Go,Go,0.3,0.05,0.2,space,green,horizontal,space,1.0685383999953046,None,space,1,0.27666380000300705,None,,,,0,1,1,1,0,12,12,12,675.4245164999738,,,,,,,,,,,,,,,,675.4096271999879,675.4245164999738,676.1239373999997,676.1239373999997,676.6235321999993,676.6081428999896,676.6089797000168,676.6235321999993,676.9233741000062,677.1230861999793,677.1230861999793,677.408001600008,space,1,0.27666380000300705,None,677.4144173000241,677.9226832999848,,678.9220133000053,,,,,,,,,,,,,,,,,002,002,2025-04-27_15h45.02.276,Cued GoNogo Task,2024.2.4,59.97123779177414,2025-04-27 15h45.13.713418 +0200,
block/CondBlock2.xlsx,You are about to start a block of type 2 trials.,13,13,0,Go,Go,0.18,0.2,0.05,space,blue,vertical,space,1.0685383999953046,None,space,1,0.2636161000118591,None,,,,0,1,1,1,0,13,13,13,678.9383606999763,,,,,,,,,,,,,,,,678.9223758999724,678.9383606999763,679.6212892999756,679.6378504000022,680.1207399999839,680.1047934999806,680.1054247000138,680.1207399999839,680.3038660999737,680.4869810999953,680.4869810999953,680.7545580000151,space,1,0.2636161000118591,None,680.757599900011,681.2698498999816,682.2689467999735,682.2530135000125,,,,,,,,,,,,,,,,,002,002,2025-04-27_15h45.02.276,Cued GoNogo Task,2024.2.4,59.97123779177414,2025-04-27 15h45.13.713418 +0200,
block/CondBlock2.xlsx,You are about to start a block of type 2 trials.,14,14,0,Go,Go,0.13,0.2,0.05,space,green,vertical,space,1.0685383999953046,None,space,1,0.2461985000409186,None,,,,0,1,1,1,0,14,14,14,682.2689467999735,,,,,,,,,,,,,,,,682.2532679000287,682.2689467999735,682.9683494999772,682.9683494999772,683.4680680999882,683.4525947999791,683.4532291999785,683.4680680999882,683.6011937999865,683.7844566000276,683.7844566000276,684.0355688999989,space,1,0.2461985000409186,None,684.0395077000139,684.5503731999779,685.5496818000101,685.5339230999816,,,,,,,,,,,,,,,,,002,002,2025-04-27_15h45.02.276,Cued GoNogo Task,2024.2.4,59.97123779177414,2025-04-27 15h45.13.713418 +0200,
block/CondBlock2.xlsx,You are about to start a block of type 2 trials.,15,15,0,Go,Go,0.18,0.2,0.05,space,blue,vertical,space,1.0685383999953046,None,space,1,0.26766449998831376,None,,,,0,1,1,1,0,15,15,15,685.5496818000101,,,,,,,,,,,,,,,,685.5344067999977,685.5496818000101,686.2491920000175,686.2491920000175,686.7485286999727,686.7327839999925,686.7335162999807,686.7485286999727,686.9316878999816,687.1148073999793,687.1148073999793,687.3994004999986,space,1,0.26766449998831376,None,687.4064569000038,687.9143207999878,688.9133313000202,688.8974635999766,,,,,,,,,,,,,,,,,002,002,2025-04-27_15h45.02.276,Cued GoNogo Task,2024.2.4,59.97123779177414,2025-04-27 15h45.13.713418 +0200,
block/CondBlock2.xlsx,You are about to start a block of type 2 trials.,16,16,0,Go,Go,0.24,0.2,0.05,space,green,vertical,space,1.0685383999953046,None,space,1,0.1664339000126347,None,,,,0,1,1,1,0,16,16,16,688.9133313000202,,,,,,,,,,,,,,,,688.897685599979,688.9133313000202,689.6127187000238,689.6127187000238,690.1125621999963,690.0967259000172,690.097517599992,690.1125621999963,690.3622703999863,690.545440100017,690.545440100017,690.7143746999791,space,1,0.1664339000126347,None,690.718068999995,691.2282228000113,692.2276017999975,692.2116775999893,,,,,,,,,,,,,,,,,002,002,2025-04-27_15h45.02.276,Cued GoNogo Task,2024.2.4,59.97123779177414,2025-04-27 15h45.13.713418 +0200,
block/CondBlock2.xlsx,You are about to start a block of type 2 trials.,17,17,0,Go,Go,0.26,0.2,0.05,space,blue,vertical,space,1.0685383999953046,None,space,1,0.2189376000314951,None,,,,0,1,1,1,0,17,17,17,692.2276017999975,,,,,,,,,,,,,,,,692.2120510999812,692.2276017999975,692.9269172999775,692.9269172999775,693.4265420999727,693.4105100000161,693.4113109000027,693.4265420999727,693.6928922000225,693.8760430000257,693.8760430000257,694.1101892999723,space,1,0.2189376000314951,None,694.1138372999849,694.6255947999889,695.6246183000039,695.6087000999833,,,,,,,,,,,,,,,,,002,002,2025-04-27_15h45.02.276,Cued GoNogo Task,2024.2.4,59.97123779177414,2025-04-27 15h45.13.713418 +0200,
block/CondBlock2.xlsx,You are about to start a block of type 2 trials.,18,18,0,Go,Go,0.1,0.05,0.2,space,blue,horizontal,space,1.0685383999953046,None,space,1,0.34789490001276135,None,,,,0,1,1,1,0,18,18,18,695.6246183000039,,,,,,,,,,,,,,,,695.6090803000261,695.6246183000039,696.3240016999771,696.3240016999771,696.8237337999744,696.8076190000284,696.8082696999772,696.8237337999744,696.9234779999824,697.1232606000267,697.1232606000267,697.4748488999903,space,1,0.34789490001276135,None,697.4819197999896,697.989519900002,,698.9886886000168,,,,,,,,,,,,,,,,,002,002,2025-04-27_15h45.02.276,Cued GoNogo Task,2024.2.4,59.97123779177414,2025-04-27 15h45.13.713418 +0200,
block/CondBlock2.xlsx,You are about to start a block of type 2 trials.,19,19,0,Go,Go,0.46,0.2,0.05,space,blue,vertical,space,1.0685383999953046,None,None,0,,,,,,0,1,1,1,0,19,19,19,699.0051802999806,,,,,,,,,,,,,,,,698.9890386000043,699.0051802999806,699.6880302000209,699.7044886000222,700.187591199996,700.1716467000078,700.1721524000168,700.187591199996,700.6539361000177,700.8368870000122,700.8368870000122,701.3206620999845,None,0,,,701.3237813999876,701.8194454999757,702.8188713000272,702.8028458000044,701.3365871999995,701.3365871999995,,,,,,,,,,,,,,,002,002,2025-04-27_15h45.02.276,Cued GoNogo Task,2024.2.4,59.97123779177414,2025-04-27 15h45.13.713418 +0200,
block/CondBlock2.xlsx,You are about to start a block of type 2 trials.,20,20,0,Go,Go,0.3,0.05,0.2,space,blue,horizontal,space,1.0685383999953046,None,space,1,0.2728004999808036,None,,,,0,1,1,1,0,20,20,20,702.8188713000272,,,,,,,,,,,,,,,,702.8031294000102,702.8353426000103,703.5346869999776,703.5346869999776,704.0344137999928,704.018763399974,704.0194932000013,704.0344137999928,704.3341923999833,704.5340002999874,704.5340002999874,704.8185099000111,space,1,0.2728004999808036,None,704.8215257999836,705.3332932000048,706.3323853000184,706.316357099975,,,,,,,,,,,,,,,,,002,002,2025-04-27_15h45.02.276,Cued GoNogo Task,2024.2.4,59.97123779177414,2025-04-27 15h45.13.713418 +0200,
block/CondBlock2.xlsx,You are about to start a block of type 2 trials.,21,21,0,Go,Go,0.23,0.05,0.2,space,green,horizontal,space,1.0685383999953046,None,space,1,0.3305996999843046,None,,,,0,1,1,1,0,21,21,21,706.3323853000184,,,,,,,,,,,,,,,,706.316574299999,706.3323853000184,707.0321819999954,707.0321819999954,707.5314375999733,707.5156049000216,707.5161990000051,707.5314375999733,707.7646824999829,707.9476834000088,707.9476834000088,708.2818835999933,space,1,0.3305996999843046,None,708.2846244000248,708.7970865999814,709.79632329999,709.78031870001,,,,,,,,,,,,,,,,,002,002,2025-04-27_15h45.02.276,Cued GoNogo Task,2024.2.4,59.97123779177414,2025-04-27 15h45.13.713418 +0200,
block/CondBlock2.xlsx,You are about to start a block of type 2 trials.,22,22,0,Go,Go,0.19,0.2,0.05,space,green,vertical,space,1.0685383999953046,None,space,1,0.23555699997814372,None,,,,0,1,1,1,0,22,22,22,709.79632329999,,,,,,,,,,,,,,,,709.7805961000267,709.79632329999,710.4959772999864,710.4959772999864,710.9952166000148,710.9797205000068,710.9805168000166,710.9952166000148,711.1951549000223,711.3785401000059,711.3785401000059,711.6298024000134,space,1,0.23555699997814372,None,711.6353199000005,712.1444161999971,713.1434963999782,713.128022000019,,,,,,,,,,,,,,,,,002,002,2025-04-27_15h45.02.276,Cued GoNogo Task,2024.2.4,59.97123779177414,2025-04-27 15h45.13.713418 +0200,
block/CondBlock2.xlsx,You are about to start a block of type 2 trials.,23,23,0,NoGo,NoGo,0.41,0.2,0.05,none,blue,vertical,space,1.0685383999953046,None,space,0,0.192507800005842,None,,,,0,1,1,1,0,23,23,23,713.1434963999782,,,,,,,,,,,,,,,,713.1284776999964,713.1434963999782,713.8429518999765,713.8429518999765,714.3425601000199,714.3265637999866,714.3272133999853,714.3425601000199,714.7590291000088,714.9420370000298,714.9420370000298,715.1429541999823,space,0,0.192507800005842,None,715.150424899999,715.6581442999886,716.6574161999743,716.6414985000156,,,,,,,,,,,,,,,,,002,002,2025-04-27_15h45.02.276,Cued GoNogo Task,2024.2.4,59.97123779177414,2025-04-27 15h45.13.713418 +0200,
block/CondBlock2.xlsx,You are about to start a block of type 2 trials.,24,24,0,Go,Go,0.17,0.2,0.05,space,blue,vertical,space,1.0685383999953046,None,space,1,0.3435007999651134,None,,,,0,1,1,1,0,24,24,24,716.6574161999743,,,,,,,,,,,,,,,,716.6417782999924,716.6574161999743,717.3567322000163,717.3567322000163,717.8561794999987,717.8400727999979,717.8405717000132,717.8561794999987,718.0396551999729,718.2227640000056,718.2227640000056,718.5744253000012,space,1,0.3435007999651134,None,718.5793383999844,719.0887769000256,720.0878335000016,720.0719121000147,,,,,,,,,,,,,,,,,002,002,2025-04-27_15h45.02.276,Cued GoNogo Task,2024.2.4,59.97123779177414,2025-04-27 15h45.13.713418 +0200,
block/CondBlock2.xlsx,You are about to start a block of type 2 trials.,25,25,0,Go,Go,0.27,0.05,0.2,space,blue,horizontal,space,1.0685383999953046,None,space,1,0.32531720004044473,None,,,,0,1,1,1,0,25,25,25,720.0878335000016,,,,,,,,,,,,,,,,720.0722030000179,720.0878335000016,720.7871636999771,720.7871636999771,721.2868123999797,721.271146700019,721.2718818000285,721.2868123999797,721.5700589999906,721.7530156000284,721.7530156000284,722.0876353000058,space,1,0.32531720004044473,None,722.0929053000291,722.6024679000257,723.6016926000011,723.5861866999767,,,,,,,,,,,,,,,,,002,002,2025-04-27_15h45.02.276,Cued GoNogo Task,2024.2.4,59.97123779177414,2025-04-27 15h45.13.713418 +0200,
block/CondBlock2.xlsx,You are about to start a block of type 2 trials.,26,26,0,Go,Go,0.26,0.05,0.2,space,green,horizontal,space,1.0685383999953046,None,space,1,0.21351060003507882,None,,,,0,1,1,1,0,26,26,26,723.6016926000011,,,,,,,,,,,,,,,,723.5866318999906,723.6016926000011,724.3010598000255,724.3010598000255,724.8009125000099,724.7847990000155,724.7852953000111,724.8009125000099,725.0670894000214,725.2503998000175,725.2503998000175,725.46818299999,space,1,0.21351060003507882,None,725.4723918000236,725.9831133999978,726.9820429999963,726.9662638999871,,,,,,,,,,,,,,,,,002,002,2025-04-27_15h45.02.276,Cued GoNogo Task,2024.2.4,59.97123779177414,2025-04-27 15h45.13.713418 +0200,
block/CondBlock2.xlsx,You are about to start a block of type 2 trials.,27,27,0,Go,Go,0.22,0.2,0.05,space,green,vertical,space,1.0685383999953046,None,space,1,0.3925314999651164,None,,,,0,1,1,1,0,27,27,27,726.9820429999963,,,,,,,,,,,,,,,,726.9666380999843,726.9820429999963,727.6814879999729,727.6814879999729,728.1812998999958,728.1657041999861,728.1666390000028,728.1812998999958,728.4143847000087,728.5976605999749,728.5976605999749,728.9982312999782,space,1,0.3925314999651164,None,729.0026677999995,729.5134089000057,730.512588099984,730.4965457000071,,,,,,,,,,,,,,,,,002,002,2025-04-27_15h45.02.276,Cued GoNogo Task,2024.2.4,59.97123779177414,2025-04-27 15h45.13.713418 +0200,
block/CondBlock2.xlsx,You are about to start a block of type 2 trials.,28,28,0,Go,Go,0.19,0.05,0.2,space,blue,horizontal,space,1.0685383999953046,None,space,1,0.2644866000046022,None,,,,0,1,1,1,0,28,28,28,730.512588099984,,,,,,,,,,,,,,,,730.4968176999828,730.512588099984,731.2121389000094,731.2121389000094,731.7116108000046,731.6958898999728,731.6966941999854,731.7116108000046,731.9114110000082,732.0945229000063,732.0945229000063,732.3622397999861,space,1,0.2644866000046022,None,732.3665330000222,732.8772271000198,733.8764595999965,733.8609772999771,,,,,,,,,,,,,,,,,002,002,2025-04-27_15h45.02.276,Cued GoNogo Task,2024.2.4,59.97123779177414,2025-04-27 15h45.13.713418 +0200,
block/CondBlock2.xlsx,You are about to start a block of type 2 trials.,29,29,0,Go,Go,0.18,0.05,0.2,space,blue,horizontal,space,1.0685383999953046,None,space,1,0.2529115999932401,None,,,,0,1,1,1,0,29,29,29,733.8764595999965,,,,,,,,,,,,,,,,733.8613553000032,733.8764595999965,734.575981699978,734.575981699978,735.0756130000227,735.0597687999834,735.0604032999836,735.0756130000227,735.2588045999873,735.4418799999985,735.4418799999985,735.7097391000134,space,1,0.2529115999932401,None,735.714193199994,736.2245334999752,737.223911500012,737.2079845999833,,,,,,,,,,,,,,,,,002,002,2025-04-27_15h45.02.276,Cued GoNogo Task,2024.2.4,59.97123779177414,2025-04-27 15h45.13.713418 +0200,
block/CondBlock2.xlsx,You are about to start a block of type 2 trials.,30,30,0,NoGo,NoGo,0.23,0.2,0.05,none,blue,vertical,space,1.0685383999953046,None,None,1,,,,,,0,1,1,1,0,30,30,30,737.223911500012,,,,,,,,,,,,,,,,737.2083004000015,737.223911500012,737.9231037999853,737.9231037999853,738.42287509999,738.4069758999976,738.4076542999828,738.42287509999,738.6558199999854,738.8391486000037,738.8391486000037,739.3227545000263,None,1,,,739.3253787999856,739.838472399977,740.837447799975,740.8218680000282,739.3385084000183,739.3385084000183,,,,,,,,,,,,,,,002,002,2025-04-27_15h45.02.276,Cued GoNogo Task,2024.2.4,59.97123779177414,2025-04-27 15h45.13.713418 +0200,
block/CondBlock2.xlsx,You are about to start a block of type 2 trials.,31,31,0,Go,Go,0.43,0.2,0.05,space,green,vertical,space,1.0685383999953046,None,space,1,0.22631669999100268,None,,,,0,1,1,1,0,31,31,31,740.837447799975,,,,,,,,,,,,,,,,740.8222444999847,740.837447799975,741.5369134999928,741.5369134999928,742.0364640000043,742.0204694999848,742.0210943000275,742.0364640000043,742.469591400004,742.6527724000043,742.6527724000043,742.887167399982,space,1,0.22631669999100268,None,742.8914258999866,743.4020596999908,744.4012232000241,744.3851772000198,,,,,,,,,,,,,,,,,002,002,2025-04-27_15h45.02.276,Cued GoNogo Task,2024.2.4,59.97123779177414,2025-04-27 15h45.13.713418 +0200,
block/CondBlock2.xlsx,You are about to start a block of type 2 trials.,32,32,0,Go,Go,0.13,0.05,0.2,space,blue,horizontal,space,1.0685383999953046,None,space,1,0.27468199998838827,None,,,,0,1,1,1,0,32,32,32,744.4012232000241,,,,,,,,,,,,,,,,744.3854378000251,744.4012232000241,745.1005309000029,745.1005309000029,745.6004330000142,745.5845277999761,745.5853302999749,745.6004330000142,745.7333781999769,745.9167506999802,745.9167506999802,746.2006704999949,space,1,0.27468199998838827,None,746.2057804000215,746.7158901999937,747.714890800009,747.6992964000092,,,,,,,,,,,,,,,,,002,002,2025-04-27_15h45.02.276,Cued GoNogo Task,2024.2.4,59.97123779177414,2025-04-27 15h45.13.713418 +0200,
block/CondBlock2.xlsx,You are about to start a block of type 2 trials.,33,33,0,Go,Go,0.45,0.05,0.2,space,green,horizontal,space,1.0685383999953046,None,space,1,0.18776770000113174,None,,,,0,1,1,1,0,33,33,33,747.714890800009,,,,,,,,,,,,,,,,747.6996277000289,747.714890800009,748.4146769000217,748.4146769000217,748.9141558000119,748.8984673999948,748.8992655000184,748.9141558000119,749.3635612999788,749.5635104000103,749.5635104000103,749.7644195000175,space,1,0.18776770000113174,None,749.7679062000243,750.2796822999953,751.279123299988,751.263325900014,,,,,,,,,,,,,,,,,002,002,2025-04-27_15h45.02.276,Cued GoNogo Task,2024.2.4,59.97123779177414,2025-04-27 15h45.13.713418 +0200,
block/CondBlock2.xlsx,You are about to start a block of type 2 trials.,34,34,0,Go,Go,0.14,0.2,0.05,space,blue,vertical,space,1.0685383999953046,None,space,1,0.3803591000032611,None,,,,0,1,1,1,0,34,34,34,751.279123299988,,,,,,,,,,,,,,,,751.2637790999725,751.279123299988,751.9782646999811,751.9782646999811,752.4780135999899,752.4621635000221,752.4629985999782,752.4780135999899,752.6278439000016,752.8110102000064,752.8110102000064,753.1953604000155,space,1,0.3803591000032611,None,753.2019456999842,753.7102363000158,754.7094526999863,754.6934520999785,,,,,,,,,,,,,,,,,002,002,2025-04-27_15h45.02.276,Cued GoNogo Task,2024.2.4,59.97123779177414,2025-04-27 15h45.13.713418 +0200,
block/CondBlock2.xlsx,You are about to start a block of type 2 trials.,35,35,0,Go,Go,0.11,0.2,0.05,space,blue,vertical,space,1.0685383999953046,None,space,1,0.2553509999997914,None,,,,0,1,1,1,0,35,35,35,754.7094526999863,,,,,,,,,,,,,,,,754.6937013000133,754.7094526999863,755.4088236999814,755.4088236999814,755.9084239000222,755.8922155000037,755.8927856999799,755.9084239000222,756.0249750000075,756.2082894999767,756.2082894999767,756.475604199979,space,1,0.2553509999997914,None,756.4798074000282,756.9909583000117,757.9899951000116,757.9741159999976,,,,,,,,,,,,,,,,,002,002,2025-04-27_15h45.02.276,Cued GoNogo Task,2024.2.4,59.97123779177414,2025-04-27 15h45.13.713418 +0200,
block/CondBlock2.xlsx,You are about to start a block of type 2 trials.,36,36,0,Go,Go,0.15,0.05,0.2,space,green,horizontal,space,1.0685383999953046,None,space,1,0.2830002999980934,None,,,,0,1,1,1,0,36,36,36,757.9899951000116,,,,,,,,,,,,,,,,757.9743921000045,757.9899951000116,758.6894458999741,758.6894458999741,759.1889242000179,759.1730120999855,759.1735585000133,759.1889242000179,759.3389457999729,759.5389196000178,759.5389196000178,759.8242273000069,space,1,0.2830002999980934,None,759.8289712999831,760.3379398999969,761.3373367000022,761.321841099998,,,,,,,,,,,,,,,,,002,002,2025-04-27_15h45.02.276,Cued GoNogo Task,2024.2.4,59.97123779177414,2025-04-27 15h45.13.713418 +0200,
block/CondBlock2.xlsx,You are about to start a block of type 2 trials.,37,37,0,Go,Go,0.15,0.2,0.05,space,green,vertical,space,1.0685383999953046,None,space,1,0.26449730002786964,None,,,,0,1,1,1,0,37,37,37,761.3373367000022,,,,,,,,,,,,,,,,761.3222880000249,761.3373367000022,762.0366255000117,762.0366255000117,762.5360727999941,762.5198369999998,762.5203604000271,762.5360727999941,762.6859492000076,762.886158999987,762.886158999987,763.1536016999744,space,1,0.26449730002786964,None,763.1566856999998,763.6686031999998,764.6678808000288,764.6519192000269,,,,,,,,,,,,,,,,,002,002,2025-04-27_15h45.02.276,Cued GoNogo Task,2024.2.4,59.97123779177414,2025-04-27 15h45.13.713418 +0200,
block/CondBlock2.xlsx,You are about to start a block of type 2 trials.,38,38,0,NoGo,NoGo,0.14,0.2,0.05,none,green,vertical,space,1.0685383999953046,None,None,1,,,,,,0,1,1,1,0,38,38,38,764.6678808000288,,,,,,,,,,,,,,,,764.6522184999776,764.6678808000288,765.3672552999924,765.3672552999924,765.8669705999782,765.8512387999799,765.8519406000269,765.8669705999782,766.0166880000033,766.1999738999875,766.1999738999875,766.6836764999898,None,1,,,766.6864608000033,767.1991375000216,768.1983564000111,768.1824798000162,766.6993974000216,766.6993974000216,,,,,,,,,,,,,,,002,002,2025-04-27_15h45.02.276,Cued GoNogo Task,2024.2.4,59.97123779177414,2025-04-27 15h45.13.713418 +0200,
block/CondBlock2.xlsx,You are about to start a block of type 2 trials.,39,39,0,Go,Go,0.46,0.2,0.05,space,green,vertical,space,1.0685383999953046,None,space,1,0.2640141000156291,None,,,,0,1,1,1,0,39,39,39,768.1983564000111,,,,,,,,,,,,,,,,768.1828278999892,768.1983564000111,768.8976351000019,768.8976351000019,769.3972400000202,769.3813907000003,769.3820252000005,769.3972400000202,769.8635252999957,770.0469891999965,770.0469891999965,770.3145131000201,space,1,0.2640141000156291,None,770.3184257000103,770.8296533999965,771.8286303000059,771.8129648999893,,,,,,,,,,,,,,,,,002,002,2025-04-27_15h45.02.276,Cued GoNogo Task,2024.2.4,59.97123779177414,2025-04-27 15h45.13.713418 +0200,
block/CondBlock2.xlsx,You are about to start a block of type 2 trials.,40,40,0,Go,Go,0.5,0.05,0.2,space,blue,horizontal,space,1.0685383999953046,None,space,1,0.3117037999909371,None,,,,0,1,1,1,0,40,40,40,771.8286303000059,,,,,,,,,,,,,,,,771.8133296999731,771.8286303000059,772.5280694999965,772.5280694999965,773.0275018999819,773.0115931999753,773.0121360999765,773.0275018999819,773.5270954000298,773.7269182999735,773.7269182999735,774.0442057999899,space,1,0.3117037999909371,None,774.0468213999993,774.5595707999892,775.5586816000286,775.542688800022,,,,,,,,,,,,,,,,,002,002,2025-04-27_15h45.02.276,Cued GoNogo Task,2024.2.4,59.97123779177414,2025-04-27 15h45.13.713418 +0200,
block/CondBlock2.xlsx,You are about to start a block of type 2 trials.,41,41,0,Go,Go,0.16,0.05,0.2,space,green,horizontal,space,1.0685383999953046,None,space,1,0.3471035999828018,None,,,,0,1,1,1,0,41,41,41,775.5586816000286,,,,,,,,,,,,,,,,775.5428863000125,775.5586816000286,776.2583218999789,776.2583218999789,776.7577981000068,776.7418337999843,776.7422925999854,776.7577981000068,776.9242433999898,777.1075366999721,777.1075366999721,777.4582282999763,space,1,0.3471035999828018,None,777.4611852000235,777.973521900014,778.9725763999741,778.9566813000129,,,,,,,,,,,,,,,,,002,002,2025-04-27_15h45.02.276,Cued GoNogo Task,2024.2.4,59.97123779177414,2025-04-27 15h45.13.713418 +0200,
