Block,blockMsg,thisN,thisTrialN,thisRepN,CueType,StimType,CueTime,Stim_Height,Stim_Width,CRESP,Color,Orientation,key_resp_2.keys,key_resp_2.rt,key_resp_2.duration,Key_Resp.keys,Key_Resp.corr,Key_Resp.rt,Key_Resp.duration,key_resp_3.keys,key_resp_3.rt,key_resp_3.duration,Blocks.thisRepN,Blocks.thisTrialN,Blocks.thisN,Blocks.thisIndex,Trials.thisRepN,Trials.thisTrialN,Trials.thisN,Trials.thisIndex,thisRow.t,notes,TaskIntro.started,fixation.started,key_resp.started,TaskIntro.stopped,key_resp.keys,key_resp.rt,key_resp.duration,BlockStart.started,BlockStart_Msg.started,key_resp_2.started,BlockStart.stopped,Blocks.key_resp_2.keys,Blocks.key_resp_2.rt,Blocks.key_resp_2.duration,Fixation.started,FixationPhase.started,Blank.started,FixationPhase.stopped,Blank.stopped,Fixation.stopped,Trial.started,Cue.started,Cue.stopped,GoNogo_Stim.started,Key_Resp.started,Trial.stopped,Trials.Key_Resp.keys,Trials.Key_Resp.corr,Trials.Key_Resp.rt,Trials.Key_Resp.duration,Feedback.started,Feedback_Present.started,Feedback_Present.stopped,Feedback.stopped,GoNogo_Stim.stopped,Key_Resp.stopped,BlockEnd.started,BlockEnd_Msg.started,key_resp_3.started,BlockEnd.stopped,Blocks.key_resp_3.keys,Blocks.key_resp_3.rt,Blocks.key_resp_3.duration,TaskEnd.started,ThankYou.started,key_resp_4.started,TaskEnd.stopped,key_resp_4.keys,key_resp_4.rt,key_resp_4.duration,participant,session,date,expName,psychopyVersion,frameRate,expStart,
,,,,,,,,,,,,,,,,,,,,,,,,,,,,,,,,,0.0014115000376477838,0.004189600003883243,0.004189600003883243,12.13737080001738,space,12.11829990008846,None,,,,,,,,,,,,,,,,,,,,,,,,,,,,,,,,,,,,,,,,,,,,008,002,2025-05-01_21h27.04.489,Cued GoNogo Task,2024.2.4,60.18052952592581,2025-05-01 21h27.13.960808 +0200,
block/CondBlock1.xlsx,You are about to start a block of type 1 trials.,0,0,0,Go,Go,0.13,0.05,0.2,space,blue,horizontal,space,1.067779100034386,None,space,1,0.32524040003772825,None,,,,0,0,0,0,0,0,0,0,13.304302500095218,,,,,,,,,12.147050000028685,12.150196900009178,12.150196900009178,13.234108900069259,space,1.067779100034386,None,13.301290400093421,13.304302500095218,13.94850860000588,14.015104799997061,14.44807290006429,14.432494000066072,14.433416900108568,14.44807290006429,14.581320800003596,14.76462100003846,14.76462100003846,15.09837750007864,space,1,0.32524040003772825,None,15.108463800046593,15.613800800056197,16.612859600107186,16.597600600100122,,,,,,,,,,,,,,,,,008,002,2025-05-01_21h27.04.489,Cued GoNogo Task,2024.2.4,60.18052952592581,2025-05-01 21h27.13.960808 +0200,
block/CondBlock1.xlsx,You are about to start a block of type 1 trials.,1,1,0,NoGo,NoGo,0.43,0.05,0.2,none,blue,horizontal,space,1.067779100034386,None,None,1,,,,,,0,0,0,0,0,1,1,1,16.612859600107186,,,,,,,,,,,,,,,,16.597945800051093,16.612859600107186,17.312312200083397,17.312312200083397,17.81199660000857,17.796740800025873,17.79743410006631,17.81199660000857,18.24495600000955,18.428086400032043,18.428086400032043,18.911603500018828,None,1,,,18.91347200004384,19.41078000003472,20.426304600085132,20.410276200040244,18.92764300003182,18.92764300003182,,,,,,,,,,,,,,,008,002,2025-05-01_21h27.04.489,Cued GoNogo Task,2024.2.4,60.18052952592581,2025-05-01 21h27.13.960808 +0200,
block/CondBlock1.xlsx,You are about to start a block of type 1 trials.,2,2,0,Go,Go,0.12,0.2,0.05,space,blue,vertical,space,1.067779100034386,None,space,1,0.26824879995547235,None,,,,0,0,0,0,0,2,2,2,20.426304600085132,,,,,,,,,,,,,,,,20.410527300089598,20.426304600085132,21.12586090003606,21.12586090003606,21.62528940010816,21.609716800041497,21.610450300038792,21.62528940010816,21.758658900042064,21.941981700016186,21.941981700016186,22.226141500053927,space,1,0.26824879995547235,None,22.23158240003977,22.74147540004924,,23.740649200044572,,,,,,,,,,,,,,,,,008,002,2025-05-01_21h27.04.489,Cued GoNogo Task,2024.2.4,60.18052952592581,2025-05-01 21h27.13.960808 +0200,
block/CondBlock1.xlsx,You are about to start a block of type 1 trials.,3,3,0,NoGo,NoGo,0.18,0.2,0.05,none,green,vertical,space,1.067779100034386,None,None,1,,,,,,0,0,0,0,0,3,3,3,23.757077100104652,,,,,,,,,,,,,,,,23.741014000028372,23.757077100104652,24.439932700013742,24.45649820007384,24.93944600003306,24.92335759999696,24.9239562000148,24.93944600003306,25.12283380003646,25.305808900040574,25.305808900040574,25.789444399997592,None,1,,,25.793070600018837,26.304976500105113,27.304185900022276,27.288266600109637,25.805310400086455,25.805310400086455,,,,,,,,,,,,,,,008,002,2025-05-01_21h27.04.489,Cued GoNogo Task,2024.2.4,60.18052952592581,2025-05-01 21h27.13.960808 +0200,
block/CondBlock1.xlsx,You are about to start a block of type 1 trials.,4,4,0,Go,Go,0.24,0.05,0.2,space,green,horizontal,space,1.067779100034386,None,space,1,0.2817257000133395,None,,,,0,0,0,0,0,4,4,4,27.304185900022276,,,,,,,,,,,,,,,,27.288586600101553,27.304185900022276,28.00343000004068,28.00343000004068,28.50327940005809,28.487607500050217,28.48849560006056,28.50327940005809,28.75284329999704,28.93607180006802,28.93607180006802,29.220216100104153,space,1,0.2817257000133395,None,29.224108800059184,29.735552600002848,30.734598700073548,30.71869820007123,,,,,,,,,,,,,,,,,008,002,2025-05-01_21h27.04.489,Cued GoNogo Task,2024.2.4,60.18052952592581,2025-05-01 21h27.13.960808 +0200,
block/CondBlock1.xlsx,You are about to start a block of type 1 trials.,5,5,0,Go,Go,0.21,0.05,0.2,space,blue,horizontal,space,1.067779100034386,None,space,1,0.3166763000190258,None,,,,0,0,0,0,0,5,5,5,30.734598700073548,,,,,,,,,,,,,,,,30.71900760009885,30.734598700073548,31.434000800014473,31.434000800014473,31.933597000082955,31.917938700062223,31.918651500018314,31.933597000082955,32.15018170000985,32.33335250010714,32.33335250010714,32.652449600049295,space,1,0.3166763000190258,None,32.65602870006114,33.16588560002856,34.16508600011002,34.14909820002504,,,,,,,,,,,,,,,,,008,002,2025-05-01_21h27.04.489,Cued GoNogo Task,2024.2.4,60.18052952592581,2025-05-01 21h27.13.960808 +0200,
block/CondBlock1.xlsx,You are about to start a block of type 1 trials.,6,6,0,Go,Go,0.11,0.2,0.05,space,blue,vertical,space,1.067779100034386,None,space,1,0.29019710002467036,None,,,,0,0,0,0,0,6,6,6,34.16508600011002,,,,,,,,,,,,,,,,34.149370300001465,34.16508600011002,34.86446980002802,34.86446980002802,35.36415720009245,35.34818220010493,35.34874660009518,35.36415720009245,35.480644700000994,35.664010300068185,35.664010300068185,35.964823100017384,space,1,0.29019710002467036,None,35.970091800088994,36.479907100088894,37.4791045000311,37.463101700064726,,,,,,,,,,,,,,,,,008,002,2025-05-01_21h27.04.489,Cued GoNogo Task,2024.2.4,60.18052952592581,2025-05-01 21h27.13.960808 +0200,
block/CondBlock1.xlsx,You are about to start a block of type 1 trials.,7,7,0,Go,Go,0.15,0.2,0.05,space,blue,vertical,space,1.067779100034386,None,space,1,0.326389400055632,None,,,,0,0,0,0,0,7,7,7,37.4791045000311,,,,,,,,,,,,,,,,37.46341880003456,37.4791045000311,38.17850300006103,38.17850300006103,38.67812150006648,38.6621204999974,38.66271770000458,38.67812150006648,38.82812900003046,39.02782459999435,39.02782459999435,39.3622104000533,space,1,0.326389400055632,None,39.366089200018905,39.87718820001464,40.87624960008543,40.86069060000591,,,,,,,,,,,,,,,,,008,002,2025-05-01_21h27.04.489,Cued GoNogo Task,2024.2.4,60.18052952592581,2025-05-01 21h27.13.960808 +0200,
block/CondBlock1.xlsx,You are about to start a block of type 1 trials.,8,8,0,NoGo,NoGo,0.3,0.05,0.2,none,blue,horizontal,space,1.067779100034386,None,None,1,,,,,,0,0,0,0,0,8,8,8,40.87624960008543,,,,,,,,,,,,,,,,40.86096390010789,40.87624960008543,41.57567740010563,41.57567740010563,42.07534800004214,42.059182700002566,42.05973110010382,42.07534800004214,42.37505430006422,42.57504260004498,42.57504260004498,43.05848150001839,None,1,,,43.060717400047,43.573981299996376,44.57331500004511,44.55764660006389,43.07435260002967,43.07435260002967,,,,,,,,,,,,,,,008,002,2025-05-01_21h27.04.489,Cued GoNogo Task,2024.2.4,60.18052952592581,2025-05-01 21h27.13.960808 +0200,
block/CondBlock1.xlsx,You are about to start a block of type 1 trials.,9,9,0,NoGo,NoGo,0.17,0.05,0.2,none,blue,horizontal,space,1.067779100034386,None,space,0,0.20764619996771216,None,,,,0,0,0,0,0,9,9,9,44.57331500004511,,,,,,,,,,,,,,,,44.55807090003509,44.57331500004511,45.27269310003612,45.27269310003612,45.772137799998745,45.75639240001328,45.75704720010981,45.772137799998745,45.95533080003224,46.138630800065584,46.138630800065584,46.35627240000758,space,0,0.20764619996771216,None,46.364019800093956,46.871627300046384,47.87068900000304,47.85470940009691,,,,,,,,,,,,,,,,,008,002,2025-05-01_21h27.04.489,Cued GoNogo Task,2024.2.4,60.18052952592581,2025-05-01 21h27.13.960808 +0200,
block/CondBlock1.xlsx,You are about to start a block of type 1 trials.,10,10,0,NoGo,NoGo,0.26,0.2,0.05,none,green,vertical,space,1.067779100034386,None,None,1,,,,,,0,0,0,0,0,10,10,10,47.87068900000304,,,,,,,,,,,,,,,,47.85499590006657,47.87068900000304,48.57000710000284,48.57000710000284,49.06977920001373,49.05351650004741,49.05412600003183,49.06977920001373,49.33592840004712,49.519230500096455,49.519230500096455,50.00288640009239,None,1,,,50.00521289999597,50.518334300024435,51.51756970002316,51.501510100089945,50.01871630002279,50.01871630002279,,,,,,,,,,,,,,,008,002,2025-05-01_21h27.04.489,Cued GoNogo Task,2024.2.4,60.18052952592581,2025-05-01 21h27.13.960808 +0200,
block/CondBlock1.xlsx,You are about to start a block of type 1 trials.,11,11,0,Go,Go,0.27,0.05,0.2,space,green,horizontal,space,1.067779100034386,None,space,1,0.2673703000182286,None,,,,0,0,0,0,0,11,11,11,51.51756970002316,,,,,,,,,,,,,,,,51.501757400110364,51.51756970002316,52.21682780003175,52.21682780003175,52.71656359999906,52.70062180003151,52.701358600053936,52.71656359999906,52.999649600009434,53.18274100008421,53.18274100008421,53.46747950010467,space,1,0.2673703000182286,None,53.47392970009241,53.98204760008957,54.981365200015716,54.96535340009723,,,,,,,,,,,,,,,,,008,002,2025-05-01_21h27.04.489,Cued GoNogo Task,2024.2.4,60.18052952592581,2025-05-01 21h27.13.960808 +0200,
block/CondBlock1.xlsx,You are about to start a block of type 1 trials.,12,12,0,Go,Go,0.16,0.2,0.05,space,green,vertical,space,1.067779100034386,None,space,1,0.39946760004386306,None,,,,0,0,0,0,0,12,12,12,54.981365200015716,,,,,,,,,,,,,,,,54.96567629999481,54.981365200015716,55.68075240007602,55.68075240007602,56.180363000021316,56.16465610009618,56.16536720003933,56.180363000021316,56.34686750010587,56.53015600005165,56.53015600005165,56.932422100100666,space,1,0.39946760004386306,None,56.936647600028664,57.445941900019534,58.44508980005048,58.42949830007274,,,,,,,,,,,,,,,,,008,002,2025-05-01_21h27.04.489,Cued GoNogo Task,2024.2.4,60.18052952592581,2025-05-01 21h27.13.960808 +0200,
block/CondBlock1.xlsx,You are about to start a block of type 1 trials.,13,13,0,Go,Go,0.13,0.2,0.05,space,green,vertical,space,1.067779100034386,None,space,1,0.3136578999692574,None,,,,0,0,0,0,0,13,13,13,58.44508980005048,,,,,,,,,,,,,,,,58.429804300074466,58.44508980005048,59.14456610009074,59.14456610009074,59.6441944000544,59.62826450006105,59.62899150000885,59.6441944000544,59.777579600107856,59.977115000016056,59.977115000016056,60.29496750002727,space,1,0.3136578999692574,None,60.298746400047094,60.80983450007625,61.8091327000875,61.793198400060646,,,,,,,,,,,,,,,,,008,002,2025-05-01_21h27.04.489,Cued GoNogo Task,2024.2.4,60.18052952592581,2025-05-01 21h27.13.960808 +0200,
block/CondBlock1.xlsx,You are about to start a block of type 1 trials.,14,14,0,Go,Go,0.12,0.05,0.2,space,blue,horizontal,space,1.067779100034386,None,space,1,0.3417822999181226,None,,,,0,0,0,0,0,14,14,14,61.8091327000875,,,,,,,,,,,,,,,,61.793503800057806,61.8091327000875,62.508548700017855,62.508548700017855,63.00822690001223,62.992167800082825,62.99279730010312,63.00822690001223,63.1413034000434,63.32431340008043,63.32431340008043,63.67559640004765,space,1,0.3417822999181226,None,63.68226690008305,64.19054040010087,65.18943350005429,65.17376650008373,,,,,,,,,,,,,,,,,008,002,2025-05-01_21h27.04.489,Cued GoNogo Task,2024.2.4,60.18052952592581,2025-05-01 21h27.13.960808 +0200,
block/CondBlock1.xlsx,You are about to start a block of type 1 trials.,15,15,0,Go,Go,0.45,0.2,0.05,space,blue,vertical,space,1.067779100034386,None,space,1,0.23606009990908206,None,,,,0,0,0,0,0,15,15,15,65.18943350005429,,,,,,,,,,,,,,,,65.17393220006488,65.18943350005429,65.88887900009286,65.88887900009286,66.38871860003565,66.37273220007773,66.3733866000548,66.38871860003565,66.83832150010858,67.0381968000438,67.0381968000438,67.28857110009994,space,1,0.23606009990908206,None,67.29109990003053,67.80404550000094,68.8033284000121,68.78746260004118,,,,,,,,,,,,,,,,,008,002,2025-05-01_21h27.04.489,Cued GoNogo Task,2024.2.4,60.18052952592581,2025-05-01 21h27.13.960808 +0200,
block/CondBlock1.xlsx,You are about to start a block of type 1 trials.,16,16,0,NoGo,NoGo,0.14,0.2,0.05,none,green,vertical,space,1.067779100034386,None,None,1,,,,,,0,0,0,0,0,16,16,16,68.8033284000121,,,,,,,,,,,,,,,,68.78775860008318,68.8033284000121,69.50273150007706,69.50273150007706,70.0024341000244,69.98651550000068,69.98740630003158,70.0024341000244,70.15206570003647,70.33550590008963,70.33550590008963,70.8192013000371,None,1,,,70.82202160009183,71.31771240010858,72.31709440005943,72.30144650000148,70.83486890001222,70.83486890001222,,,,,,,,,,,,,,,008,002,2025-05-01_21h27.04.489,Cued GoNogo Task,2024.2.4,60.18052952592581,2025-05-01 21h27.13.960808 +0200,
block/CondBlock1.xlsx,You are about to start a block of type 1 trials.,17,17,0,Go,Go,0.12,0.05,0.2,space,green,horizontal,space,1.067779100034386,None,space,1,0.368574499967508,None,,,,0,0,0,0,0,17,17,17,72.31709440005943,,,,,,,,,,,,,,,,72.30179310007952,72.33377990010194,73.03320540010463,73.03320540010463,73.53294240008108,73.51692780002486,73.51772320002783,73.53294240008108,73.66582180000842,73.84909190004691,73.84909190004691,74.23310410010163,space,1,0.368574499967508,None,74.23598960007075,74.74847370001953,75.74775360000785,75.73165480000898,,,,,,,,,,,,,,,,,008,002,2025-05-01_21h27.04.489,Cued GoNogo Task,2024.2.4,60.18052952592581,2025-05-01 21h27.13.960808 +0200,
block/CondBlock1.xlsx,You are about to start a block of type 1 trials.,18,18,0,Go,Go,0.47,0.2,0.05,space,blue,vertical,space,1.067779100034386,None,space,1,0.36471780005376786,None,,,,0,0,0,0,0,18,18,18,75.74775360000785,,,,,,,,,,,,,,,,75.73192510008812,75.74775360000785,76.44702600000892,76.44702600000892,76.94673760002479,76.93043460010085,76.93088660005014,76.94673760002479,77.42959820001852,77.61293340008706,77.61293340008706,77.98077140003443,space,1,0.36471780005376786,None,77.98501160007436,78.49550990003627,79.494603500003,79.47864930005744,,,,,,,,,,,,,,,,,008,002,2025-05-01_21h27.04.489,Cued GoNogo Task,2024.2.4,60.18052952592581,2025-05-01 21h27.13.960808 +0200,
block/CondBlock1.xlsx,You are about to start a block of type 1 trials.,19,19,0,Go,Go,0.18,0.2,0.05,space,green,vertical,space,1.067779100034386,None,space,1,0.40569209994282573,None,,,,0,0,0,0,0,19,19,19,79.494603500003,,,,,,,,,,,,,,,,79.47894220007583,79.494603500003,80.19404020009097,80.19404020009097,80.69350050005596,80.67764630005695,80.67830400005914,80.69350050005596,80.87683350010775,81.07667730003595,81.07667730003595,81.49416240002029,space,1,0.40569209994282573,None,81.49827600002754,82.00919270003214,83.00842510000803,82.99244930001441,,,,,,,,,,,,,,,,,008,002,2025-05-01_21h27.04.489,Cued GoNogo Task,2024.2.4,60.18052952592581,2025-05-01 21h27.13.960808 +0200,
block/CondBlock1.xlsx,You are about to start a block of type 1 trials.,20,20,0,Go,Go,0.19,0.2,0.05,space,blue,vertical,space,1.067779100034386,None,space,1,0.3791478999191895,None,,,,0,0,0,0,0,20,20,20,83.00842510000803,,,,,,,,,,,,,,,,82.99274910008535,83.00842510000803,83.7075839000754,83.7075839000754,84.20743080007378,84.19168340007309,84.19245380000211,84.20743080007378,84.40727780002635,84.59039110003505,84.59039110003505,84.97437830001581,space,1,0.3791478999191895,None,84.97806310001761,85.48962310003117,86.48872910009231,86.47315470001195,,,,,,,,,,,,,,,,,008,002,2025-05-01_21h27.04.489,Cued GoNogo Task,2024.2.4,60.18052952592581,2025-05-01 21h27.13.960808 +0200,
block/CondBlock1.xlsx,You are about to start a block of type 1 trials.,21,21,0,Go,Go,0.14,0.2,0.05,space,blue,vertical,space,1.067779100034386,None,space,1,0.46049020008649677,None,,,,0,0,0,0,0,21,21,21,86.48872910009231,,,,,,,,,,,,,,,,86.47351510007866,86.48872910009231,87.18807290005498,87.18807290005498,87.68780280009378,87.67156440007966,87.67194010003004,87.68780280009378,87.83747860009316,88.02102650003508,88.02102650003508,88.48838410002645,space,1,0.46049020008649677,None,88.49346310005058,89.00344490003772,90.00252910004929,89.98700050008483,,,,,,,,,,,,,,,,,008,002,2025-05-01_21h27.04.489,Cued GoNogo Task,2024.2.4,60.18052952592581,2025-05-01 21h27.13.960808 +0200,
block/CondBlock1.xlsx,You are about to start a block of type 1 trials.,22,22,0,Go,Go,0.15,0.2,0.05,space,blue,vertical,space,1.067779100034386,None,space,1,0.34722870006226003,None,,,,0,0,0,0,0,22,22,22,90.00252910004929,,,,,,,,,,,,,,,,89.98735760001,90.00252910004929,90.7018666000804,90.7018666000804,91.20153930003289,91.18583600001875,91.18661940004677,91.20153930003289,91.3513623001054,91.55126500001643,91.55126500001643,91.90189760003705,space,1,0.34722870006226003,None,91.9052433000179,92.41721930005588,93.41621210006997,93.40051220008172,,,,,,,,,,,,,,,,,008,002,2025-05-01_21h27.04.489,Cued GoNogo Task,2024.2.4,60.18052952592581,2025-05-01 21h27.13.960808 +0200,
block/CondBlock1.xlsx,You are about to start a block of type 1 trials.,23,23,0,Go,Go,0.23,0.05,0.2,space,green,horizontal,space,1.067779100034386,None,space,1,0.41064229991752654,None,,,,0,0,0,0,0,23,23,23,93.41621210006997,,,,,,,,,,,,,,,,93.40082239999902,93.41621210006997,94.11579080007505,94.11579080007505,94.61539700010326,94.59955700009596,94.60023380001076,94.61539700010326,94.8487155000912,95.03177260002121,95.03177260002121,95.44915530004073,space,1,0.41064229991752654,None,95.45280800003093,95.96437850000802,96.96342460007872,96.94757130008657,,,,,,,,,,,,,,,,,008,002,2025-05-01_21h27.04.489,Cued GoNogo Task,2024.2.4,60.18052952592581,2025-05-01 21h27.13.960808 +0200,
block/CondBlock1.xlsx,You are about to start a block of type 1 trials.,24,24,0,Go,Go,0.2,0.2,0.05,space,blue,vertical,space,1.067779100034386,None,space,1,0.344011600012891,None,,,,0,0,0,0,0,24,24,24,96.96342460007872,,,,,,,,,,,,,,,,96.94783810002264,96.96342460007872,97.66311550000682,97.66311550000682,98.16246780008078,98.1470973000396,98.14807019999716,98.16246780008078,98.36241880001035,98.56221680005547,98.56221680005547,98.91269380005542,space,1,0.344011600012891,None,98.91596030001529,99.42816840007436,100.42743810010143,100.41118630010169,,,,,,,,,,,,,,,,,008,002,2025-05-01_21h27.04.489,Cued GoNogo Task,2024.2.4,60.18052952592581,2025-05-01 21h27.13.960808 +0200,
block/CondBlock1.xlsx,You are about to start a block of type 1 trials.,25,25,0,Go,Go,0.15,0.2,0.05,space,blue,vertical,space,1.067779100034386,None,space,1,0.3467858999501914,None,,,,0,0,0,0,0,25,25,25,100.42743810010143,,,,,,,,,,,,,,,,100.4114300000947,100.42743810010143,101.12691700004507,101.12691700004507,101.62632000003941,101.61083690007217,101.61182120000012,101.62632000003941,101.77630820008926,101.97608190006576,101.97608190006576,102.32720010005869,space,1,0.3467858999501914,None,102.33194490009919,102.84207220003009,103.84127650002483,103.82542190002277,,,,,,,,,,,,,,,,,008,002,2025-05-01_21h27.04.489,Cued GoNogo Task,2024.2.4,60.18052952592581,2025-05-01 21h27.13.960808 +0200,
block/CondBlock1.xlsx,You are about to start a block of type 1 trials.,26,26,0,NoGo,NoGo,0.2,0.2,0.05,none,blue,vertical,space,1.067779100034386,None,None,1,,,,,,0,0,0,0,0,26,26,26,103.84127650002483,,,,,,,,,,,,,,,,103.82582680007908,103.84127650002483,104.54051340010483,104.54051340010483,105.04010910005309,105.02459120005369,105.02518640004564,105.04010910005309,105.24012590001803,105.43987930007279,105.43987930007279,105.92360910004936,None,1,,,105.92696150008123,106.43907370010857,107.4383934000507,107.4221762000816,105.93946640007198,105.93946640007198,,,,,,,,,,,,,,,008,002,2025-05-01_21h27.04.489,Cued GoNogo Task,2024.2.4,60.18052952592581,2025-05-01 21h27.13.960808 +0200,
block/CondBlock1.xlsx,You are about to start a block of type 1 trials.,27,27,0,Go,Go,0.29,0.05,0.2,space,green,horizontal,space,1.067779100034386,None,space,1,0.27488939999602735,None,,,,0,0,0,0,0,27,27,27,107.4383934000507,,,,,,,,,,,,,,,,107.42258090001997,107.4383934000507,108.13758770003915,108.13758770003915,108.63729940005578,108.62144110002555,108.62210270005744,108.63729940005578,108.93694460007828,109.12002800009213,109.12002800009213,109.40457780007273,space,1,0.27488939999602735,None,109.40931550005917,109.91947520000394,110.91859880008269,110.90294250007719,,,,,,,,,,,,,,,,,008,002,2025-05-01_21h27.04.489,Cued GoNogo Task,2024.2.4,60.18052952592581,2025-05-01 21h27.13.960808 +0200,
block/CondBlock1.xlsx,You are about to start a block of type 1 trials.,28,28,0,Go,Go,0.24,0.2,0.05,space,blue,vertical,space,1.067779100034386,None,space,1,0.3720990000292659,None,,,,0,0,0,0,0,28,28,28,110.91859880008269,,,,,,,,,,,,,,,,110.90323520009406,110.91859880008269,111.61812050000299,111.61812050000299,112.11752120009623,112.10169070004486,112.10227370006032,112.11752120009623,112.36742910009343,112.55079590005334,112.55079590005334,112.93493820005096,space,1,0.3720990000292659,None,112.9387243000092,113.45000960002653,114.44908420008142,114.43322080001235,,,,,,,,,,,,,,,,,008,002,2025-05-01_21h27.04.489,Cued GoNogo Task,2024.2.4,60.18052952592581,2025-05-01 21h27.13.960808 +0200,
block/CondBlock1.xlsx,You are about to start a block of type 1 trials.,29,29,0,Go,Go,0.15,0.05,0.2,space,green,horizontal,space,1.067779100034386,None,space,1,0.3485355000011623,None,,,,0,0,0,0,0,29,29,29,114.44908420008142,,,,,,,,,,,,,,,,114.43348340003286,114.44908420008142,115.14831560000312,115.14831560000312,115.64818860008381,115.63231910008471,115.63293940003496,115.64818860008381,115.7979045000393,115.99801780004054,115.99801780004054,116.34927110001445,space,1,0.3485355000011623,None,116.3525035000639,116.86368880001828,117.86291280004662,117.84688710002229,,,,,,,,,,,,,,,,,008,002,2025-05-01_21h27.04.489,Cued GoNogo Task,2024.2.4,60.18052952592581,2025-05-01 21h27.13.960808 +0200,
block/CondBlock1.xlsx,You are about to start a block of type 1 trials.,30,30,0,Go,Go,0.23,0.2,0.05,space,green,vertical,space,1.067779100034386,None,space,1,0.33216420002281666,None,,,,0,0,0,0,0,30,30,30,117.86291280004662,,,,,,,,,,,,,,,,117.84711770003196,117.86291280004662,118.56259320001118,118.56259320001118,119.06194860010874,119.04642610007431,119.04712820006534,119.06194860010874,119.29505160008557,119.47834470006637,119.47834470006637,119.81345380004495,space,1,0.33216420002281666,None,119.81775390007533,120.32759910007007,121.32683770009317,121.31089640001301,,,,,,,,,,,,,,,,,008,002,2025-05-01_21h27.04.489,Cued GoNogo Task,2024.2.4,60.18052952592581,2025-05-01 21h27.13.960808 +0200,
block/CondBlock1.xlsx,You are about to start a block of type 1 trials.,31,31,0,Go,Go,0.28,0.2,0.05,space,green,vertical,space,1.067779100034386,None,space,1,0.41668079991359264,None,,,,0,0,0,0,0,31,31,31,121.32683770009317,,,,,,,,,,,,,,,,121.31123500003014,121.32683770009317,122.02629740000702,122.02629740000702,122.5256675001001,122.51003260002472,122.51105730002746,122.5256675001001,122.80886600003578,123.00877450010739,123.00877450010739,123.44310550007503,space,1,0.41668079991359264,None,123.44773260003421,123.95807670010254,124.95716560003348,124.94117020000704,,,,,,,,,,,,,,,,,008,002,2025-05-01_21h27.04.489,Cued GoNogo Task,2024.2.4,60.18052952592581,2025-05-01 21h27.13.960808 +0200,
block/CondBlock1.xlsx,You are about to start a block of type 1 trials.,32,32,0,Go,Go,0.19,0.2,0.05,space,green,vertical,space,1.067779100034386,None,space,1,0.383574900100939,None,,,,0,0,0,0,0,32,32,32,124.95716560003348,,,,,,,,,,,,,,,,124.9414316000184,124.95716560003348,125.65667540009599,125.65667540009599,126.15610070002731,126.13997990009375,126.14042300009169,126.15610070002731,126.3560878999997,126.53911520005204,126.53911520005204,126.92539400001988,space,1,0.383574900100939,None,126.92972620006185,127.43839530006517,128.4376304000616,128.421792200068,,,,,,,,,,,,,,,,,008,002,2025-05-01_21h27.04.489,Cued GoNogo Task,2024.2.4,60.18052952592581,2025-05-01 21h27.13.960808 +0200,
block/CondBlock1.xlsx,You are about to start a block of type 1 trials.,33,33,0,Go,Go,0.12,0.2,0.05,space,green,vertical,space,1.067779100034386,None,space,1,0.4005775999976322,None,,,,0,0,0,0,0,33,33,33,128.4376304000616,,,,,,,,,,,,,,,,128.42210359999444,128.4376304000616,129.13703600002918,129.13703600002918,129.63663600001018,129.62097000004724,129.62172360008117,129.63663600001018,129.76986260002013,129.95298150007147,129.95298150007147,130.37062610010616,space,1,0.4005775999976322,None,130.3747881000163,130.8855542000383,131.88467060006224,131.8687655000249,,,,,,,,,,,,,,,,,008,002,2025-05-01_21h27.04.489,Cued GoNogo Task,2024.2.4,60.18052952592581,2025-05-01 21h27.13.960808 +0200,
block/CondBlock1.xlsx,You are about to start a block of type 1 trials.,34,34,0,Go,Go,0.18,0.2,0.05,space,blue,vertical,space,1.067779100034386,None,space,1,0.42350379994604737,None,,,,0,0,0,0,0,34,34,34,131.88467060006224,,,,,,,,,,,,,,,,131.8690599000547,131.88467060006224,132.5842607000377,132.5842607000377,133.08377910009585,133.0678875000449,133.0688291999977,133.08377910009585,133.26713430008385,133.4500314000761,133.4500314000761,133.88423429999966,space,1,0.42350379994604737,None,133.8884992999956,134.39931030001026,135.39856720005628,135.38260510005057,,,,,,,,,,,,,,,,,008,002,2025-05-01_21h27.04.489,Cued GoNogo Task,2024.2.4,60.18052952592581,2025-05-01 21h27.13.960808 +0200,
block/CondBlock1.xlsx,You are about to start a block of type 1 trials.,35,35,0,Go,Go,0.21,0.2,0.05,space,blue,vertical,space,1.067779100034386,None,space,1,0.3095381000312045,None,,,,0,0,0,0,0,35,35,35,135.39856720005628,,,,,,,,,,,,,,,,135.3828459000215,135.39856720005628,136.0981008000672,136.0981008000672,136.59744450007565,136.58177120005712,136.58246560010593,136.59744450007565,136.81415590003598,136.99720080010593,136.99720080010593,137.31469420006033,space,1,0.3095381000312045,None,137.31836880010087,137.82993600005284,138.82900850009173,138.81313710007817,,,,,,,,,,,,,,,,,008,002,2025-05-01_21h27.04.489,Cued GoNogo Task,2024.2.4,60.18052952592581,2025-05-01 21h27.13.960808 +0200,
block/CondBlock1.xlsx,You are about to start a block of type 1 trials.,36,36,0,Go,Go,0.2,0.2,0.05,space,green,vertical,space,1.067779100034386,None,space,1,0.4069892999250442,None,,,,0,0,0,0,0,36,36,36,138.82900850009173,,,,,,,,,,,,,,,,138.81339850008953,138.82900850009173,139.52836770005524,139.52836770005524,140.0279277000809,140.01190680009313,140.01244459999725,140.0279277000809,140.22797320003156,140.42785530001856,140.42785530001856,140.84527980000712,space,1,0.4069892999250442,None,140.84960950003006,141.36033160006627,142.35940560000017,142.34336300008,,,,,,,,,,,,,,,,,008,002,2025-05-01_21h27.04.489,Cued GoNogo Task,2024.2.4,60.18052952592581,2025-05-01 21h27.13.960808 +0200,
block/CondBlock1.xlsx,You are about to start a block of type 1 trials.,37,37,0,Go,Go,0.45,0.05,0.2,space,blue,horizontal,space,1.067779100034386,None,space,1,0.40234579995740205,None,,,,0,0,0,0,0,37,37,37,142.35940560000017,,,,,,,,,,,,,,,,142.3436054000631,142.35940560000017,143.05876520008314,143.05876520008314,143.55839540006127,143.5423305000877,143.5428080999991,143.55839540006127,144.00818570004776,144.2079692000989,144.2079692000989,144.62565800000448,space,1,0.40234579995740205,None,144.62974240002222,145.14045410009567,146.1397490000818,146.12379470001906,,,,,,,,,,,,,,,,,008,002,2025-05-01_21h27.04.489,Cued GoNogo Task,2024.2.4,60.18052952592581,2025-05-01 21h27.13.960808 +0200,
block/CondBlock1.xlsx,You are about to start a block of type 1 trials.,38,38,0,Go,Go,0.13,0.05,0.2,space,blue,horizontal,space,1.067779100034386,None,space,1,0.3637708000605926,None,,,,0,0,0,0,0,38,38,38,146.1397490000818,,,,,,,,,,,,,,,,146.12404330004938,146.1397490000818,146.83927140000742,146.83927140000742,147.3387408000417,147.32305070001166,147.32386850006878,147.3387408000417,147.47181190003175,147.65503940009512,147.65503940009512,148.02288910001516,space,1,0.3637708000605926,None,148.02845440001693,148.53801480005495,149.53698190010618,149.5213085000869,,,,,,,,,,,,,,,,,008,002,2025-05-01_21h27.04.489,Cued GoNogo Task,2024.2.4,60.18052952592581,2025-05-01 21h27.13.960808 +0200,
block/CondBlock1.xlsx,You are about to start a block of type 1 trials.,39,39,0,Go,Go,0.46,0.2,0.05,space,blue,vertical,space,1.067779100034386,None,space,1,0.3380902000935748,None,,,,0,0,0,0,0,39,39,39,149.53698190010618,,,,,,,,,,,,,,,,149.52165380003862,149.53698190010618,150.23632650007494,150.23632650007494,150.73597720009275,150.72001630009618,150.72061900002882,150.73597720009275,151.20218550006393,151.38536650000606,151.38536650000606,151.73611980001442,space,1,0.3380902000935748,None,151.73952250008006,152.25135410006624,153.25039800000377,153.23458990000654,,,,,,,,,,,,,,,,,008,002,2025-05-01_21h27.04.489,Cued GoNogo Task,2024.2.4,60.18052952592581,2025-05-01 21h27.13.960808 +0200,
block/CondBlock1.xlsx,You are about to start a block of type 1 trials.,40,40,0,Go,Go,0.29,0.2,0.05,space,blue,vertical,space,1.067779100034386,None,space,1,0.33390319999307394,None,,,,0,0,0,0,0,40,40,40,153.25039800000377,,,,,,,,,,,,,,,,153.23490740009584,153.25039800000377,153.94995620008558,153.94995620008558,154.44944780005608,154.43373240006622,154.43438300001435,154.44944780005608,154.7492665000027,154.93227049999405,154.93227049999405,155.2831985000521,space,1,0.33390319999307394,None,155.28758190001827,155.79857630003244,156.79760250006802,156.78180840006098,,,,,,,,,,,,,,,,,008,002,2025-05-01_21h27.04.489,Cued GoNogo Task,2024.2.4,60.18052952592581,2025-05-01 21h27.13.960808 +0200,
block/CondBlock1.xlsx,You are about to start a block of type 1 trials.,41,41,0,Go,Go,0.22,0.2,0.05,space,blue,vertical,space,1.067779100034386,None,space,1,0.35062939999625087,None,,,,0,0,0,0,0,41,41,41,156.79760250006802,,,,,,,,,,,,,,,,156.78212590003386,156.79760250006802,157.49699460004922,157.49699460004922,157.9965349000413,157.98055660002865,157.98106440005358,157.9965349000413,158.22968810005113,158.413027600036,158.413027600036,158.78035760007333,space,1,0.35062939999625087,None,158.78368890006095,159.2956339000957,160.29499290010426,160.27881390007678,,,,,,,,,,,,,,,,,008,002,2025-05-01_21h27.04.489,Cued GoNogo Task,2024.2.4,60.18052952592581,2025-05-01 21h27.13.960808 +0200,
block/CondBlock1.xlsx,You are about to start a block of type 1 trials.,42,42,0,Go,Go,0.49,0.2,0.05,space,blue,vertical,space,1.067779100034386,None,space,1,0.45035279996227473,None,,,,0,0,0,0,0,42,42,42,160.29499290010426,,,,,,,,,,,,,,,,160.27912290010136,160.29499290010426,160.99422120000236,160.99422120000236,161.49369470006786,161.477644000086,161.47826330002863,161.49369470006786,161.993344000075,162.17648250004277,162.17648250004277,162.643966200063,space,1,0.45035279996227473,None,162.6489221000811,163.15907600009814,164.15818850009236,164.142512200051,,,,,,,,,,,,,,,,,008,002,2025-05-01_21h27.04.489,Cued GoNogo Task,2024.2.4,60.18052952592581,2025-05-01 21h27.13.960808 +0200,
block/CondBlock1.xlsx,You are about to start a block of type 1 trials.,43,43,0,Go,Go,0.2,0.2,0.05,space,blue,vertical,space,1.067779100034386,None,space,1,0.33402299997396767,None,,,,0,0,0,0,0,43,43,43,164.15818850009236,,,,,,,,,,,,,,,,164.14281860005576,164.15818850009236,164.8576038000174,164.8576038000174,165.35720160009805,165.34157140005846,165.34230310004205,165.35720160009805,165.55721180001274,165.7568534000311,165.7568534000311,166.10741280007642,space,1,0.33402299997396767,None,166.11054040002637,166.62290040007792,167.62181320006493,167.6062931000488,,,,,,,,,,,,,,,,,008,002,2025-05-01_21h27.04.489,Cued GoNogo Task,2024.2.4,60.18052952592581,2025-05-01 21h27.13.960808 +0200,
block/CondBlock1.xlsx,You are about to start a block of type 1 trials.,44,44,0,Go,Go,0.3,0.05,0.2,space,blue,horizontal,space,1.067779100034386,None,space,1,0.3451385999796912,None,,,,0,0,0,0,0,44,44,44,167.62181320006493,,,,,,,,,,,,,,,,167.60657830000855,167.62181320006493,168.32152890006546,168.32152890006546,168.8211143000517,168.80497620010283,168.8055695000803,168.8211143000517,169.12086720007937,169.32062130002305,169.32062130002305,169.67172360001132,space,1,0.3451385999796912,None,169.67616840009578,170.18665110005531,171.1858972000191,171.1698753000237,,,,,,,,,,,,,,,,,008,002,2025-05-01_21h27.04.489,Cued GoNogo Task,2024.2.4,60.18052952592581,2025-05-01 21h27.13.960808 +0200,
block/CondBlock1.xlsx,You are about to start a block of type 1 trials.,45,45,0,NoGo,NoGo,0.21,0.05,0.2,none,green,horizontal,space,1.067779100034386,None,None,1,,,,,,0,0,0,0,0,45,45,45,171.1858972000191,,,,,,,,,,,,,,,,171.17012910009362,171.1858972000191,171.8852236000821,171.8852236000821,172.38468290003948,172.3686289000325,172.36910250002984,172.38468290003948,172.60118250001688,172.78444410010707,172.78444410010707,173.26815630006604,None,1,,,173.27066050004214,173.7837390000932,174.78284990007523,174.76679740007967,173.28393720008899,173.28393720008899,,,,,,,,,,,,,,,008,002,2025-05-01_21h27.04.489,Cued GoNogo Task,2024.2.4,60.18052952592581,2025-05-01 21h27.13.960808 +0200,
block/CondBlock1.xlsx,You are about to start a block of type 1 trials.,46,46,0,NoGo,NoGo,0.45,0.05,0.2,none,blue,horizontal,space,1.067779100034386,None,None,1,,,,,,0,0,0,0,0,46,46,46,174.78284990007523,,,,,,,,,,,,,,,,174.76704300008714,174.78284990007523,175.48220540001057,175.48220540001057,175.9816672001034,175.96603550005239,175.96683250006754,175.9816672001034,176.4316494000377,176.6313251000829,176.6313251000829,177.11484250007197,None,1,,,177.1153881000355,177.63051820010878,178.62972369999625,178.61397990002297,177.1308765000431,177.1308765000431,,,,,,,,,,,,,,,008,002,2025-05-01_21h27.04.489,Cued GoNogo Task,2024.2.4,60.18052952592581,2025-05-01 21h27.13.960808 +0200,
block/CondBlock1.xlsx,You are about to start a block of type 1 trials.,47,47,0,Go,Go,0.24,0.05,0.2,space,green,horizontal,space,1.067779100034386,None,space,1,0.4049142999574542,None,,,,0,0,0,0,0,47,47,47,178.62972369999625,,,,,,,,,,,,,,,,178.61422290001065,178.62972369999625,179.32916310010478,179.32916310010478,179.82863870006986,179.81267510005273,179.81368590006605,179.82863870006986,180.07847900001798,180.2615974000655,180.2615974000655,180.67874610004947,space,1,0.4049142999574542,None,180.6822750000283,181.19426040002145,182.19329429999925,182.1772596000228,,,,,,,,,,,,,,,,,008,002,2025-05-01_21h27.04.489,Cued GoNogo Task,2024.2.4,60.18052952592581,2025-05-01 21h27.13.960808 +0200,
block/CondBlock1.xlsx,You are about to start a block of type 1 trials.,48,48,0,NoGo,NoGo,0.15,0.2,0.05,none,blue,vertical,space,1.067779100034386,None,None,1,,,,,,0,0,0,0,0,48,48,48,182.19329429999925,,,,,,,,,,,,,,,,182.17751950002275,182.19329429999925,182.8928353000665,182.8928353000665,183.39228910009842,183.37656510004308,183.37723450001795,183.39228910009842,183.54232960008085,183.74222130002454,183.74222130002454,184.22587570000906,None,1,,,184.2287017001072,184.74141430004966,185.7405599000631,185.72491670004092,184.24174730002414,184.24174730002414,,,,,,,,,,,,,,,008,002,2025-05-01_21h27.04.489,Cued GoNogo Task,2024.2.4,60.18052952592581,2025-05-01 21h27.13.960808 +0200,
block/CondBlock1.xlsx,You are about to start a block of type 1 trials.,49,49,0,Go,Go,0.12,0.05,0.2,space,blue,horizontal,space,1.067779100034386,None,space,1,0.3224198000971228,None,,,,0,0,0,0,0,49,49,49,185.7405599000631,,,,,,,,,,,,,,,,185.7253147000447,185.7405599000631,186.43982040008996,186.43982040008996,186.93944700004067,186.9237404000014,186.92461870005354,186.93944700004067,187.07262350001838,187.2559789000079,187.2559789000079,187.59018110006582,space,1,0.3224198000971228,None,187.59472680010367,188.10523030010518,,189.10448500001803,,,,,,,,,,,,,,,,,008,002,2025-05-01_21h27.04.489,Cued GoNogo Task,2024.2.4,60.18052952592581,2025-05-01 21h27.13.960808 +0200,
block/CondBlock1.xlsx,You are about to start a block of type 1 trials.,50,50,0,Go,Go,0.22,0.2,0.05,space,green,vertical,space,1.067779100034386,None,space,1,0.37021849991288036,None,,,,0,0,0,0,0,50,50,50,189.12090780003928,,,,,,,,,,,,,,,,189.10469410009682,189.12090780003928,189.80373889999464,189.8206401000498,190.30346460000146,190.28752500005066,190.2882118000416,190.30346460000146,190.53640350000933,190.71977780002635,190.71977780002635,191.10401350003667,space,1,0.37021849991288036,None,191.10874470009003,191.61908780003432,192.61814540007617,192.60242580005433,,,,,,,,,,,,,,,,,008,002,2025-05-01_21h27.04.489,Cued GoNogo Task,2024.2.4,60.18052952592581,2025-05-01 21h27.13.960808 +0200,
block/CondBlock1.xlsx,You are about to start a block of type 1 trials.,51,51,0,Go,Go,0.28,0.05,0.2,space,green,horizontal,space,1.067779100034386,None,space,1,0.27848069998435676,None,,,,0,0,0,0,0,51,51,51,192.61814540007617,,,,,,,,,,,,,,,,192.60275429999456,192.61814540007617,193.3174624000676,193.3174624000676,193.81707600003574,193.80121880001388,193.80177620006725,193.81707600003574,194.10027210006956,194.28346850001253,194.28346850001253,194.56790720007848,space,1,0.27848069998435676,None,194.57190300000366,195.08281280007213,196.08198660006747,196.06636640010402,,,,,,,,,,,,,,,,,008,002,2025-05-01_21h27.04.489,Cued GoNogo Task,2024.2.4,60.18052952592581,2025-05-01 21h27.13.960808 +0200,
block/CondBlock1.xlsx,You are about to start a block of type 1 trials.,52,52,0,Go,Go,0.23,0.2,0.05,space,green,vertical,space,1.067779100034386,None,space,1,0.2728491999441758,None,,,,0,0,0,0,0,52,52,52,196.08198660006747,,,,,,,,,,,,,,,,196.06673670001328,196.08198660006747,196.78145550005138,196.78145550005138,197.2812073000241,197.2648499000352,197.26546240004245,197.2812073000241,197.51408550003543,197.69720700010657,197.69720700010657,197.98170770006254,space,1,0.2728491999441758,None,197.98644500004593,198.49669280007947,199.49577020003926,199.47976290003862,,,,,,,,,,,,,,,,,008,002,2025-05-01_21h27.04.489,Cued GoNogo Task,2024.2.4,60.18052952592581,2025-05-01 21h27.13.960808 +0200,
block/CondBlock1.xlsx,You are about to start a block of type 1 trials.,53,53,0,Go,Go,0.22,0.05,0.2,space,green,horizontal,space,1.067779100034386,None,space,1,0.31643000000622123,None,,,,0,0,0,0,0,53,53,53,199.49577020003926,,,,,,,,,,,,,,,,199.47998659999575,199.49577020003926,200.19547090004198,200.19547090004198,200.6948592000408,200.6793077000184,200.67996440001298,200.6948592000408,200.92789210006595,201.11102410010062,201.11102410010062,201.42982810002286,space,1,0.31643000000622123,None,201.43499570002314,201.9437201000983,202.9429713001009,202.9275678000413,,,,,,,,,,,,,,,,,008,002,2025-05-01_21h27.04.489,Cued GoNogo Task,2024.2.4,60.18052952592581,2025-05-01 21h27.13.960808 +0200,
block/CondBlock1.xlsx,You are about to start a block of type 1 trials.,54,54,0,NoGo,NoGo,0.14,0.05,0.2,none,green,horizontal,space,1.067779100034386,None,None,1,,,,,,0,0,0,0,0,54,54,54,202.9429713001009,,,,,,,,,,,,,,,,202.92789859999903,202.9429713001009,203.64226079999935,203.64226079999935,204.1420961000258,204.12606590008363,204.12673490005545,204.1420961000258,204.2919208999956,204.47498719999567,204.47498719999567,204.95877420005854,None,1,,,204.96144600003026,205.47430870006792,206.4733385000145,206.45747050002683,204.97454150009435,204.97454150009435,,,,,,,,,,,,,,,008,002,2025-05-01_21h27.04.489,Cued GoNogo Task,2024.2.4,60.18052952592581,2025-05-01 21h27.13.960808 +0200,
block/CondBlock1.xlsx,You are about to start a block of type 1 trials.,55,55,0,Go,Go,0.15,0.2,0.05,space,blue,vertical,space,1.067779100034386,None,space,1,0.2920805999310687,None,,,,0,0,0,0,0,55,55,55,206.4733385000145,,,,,,,,,,,,,,,,206.45772730000317,206.4733385000145,207.17276020010468,207.17276020010468,207.67230130010284,207.65627840009984,207.65675200009719,207.67230130010284,207.82231050007977,208.02208650007378,208.02208650007378,208.32304430007935,space,1,0.2920805999310687,None,208.32738590007648,208.83812860003673,209.8372588000493,209.82129480002914,,,,,,,,,,,,,,,,,008,002,2025-05-01_21h27.04.489,Cued GoNogo Task,2024.2.4,60.18052952592581,2025-05-01 21h27.13.960808 +0200,
block/CondBlock1.xlsx,You are about to start a block of type 1 trials.,56,56,0,Go,Go,0.47,0.2,0.05,space,blue,vertical,space,1.067779100034386,None,space,1,0.29243979998864233,None,,,,0,0,0,0,0,56,56,56,209.8372588000493,,,,,,,,,,,,,,,,209.82149030000437,209.8372588000493,210.5367896000389,210.5367896000389,211.03626290010288,211.0207975000376,211.0215770000359,211.03626290010288,211.51922870008275,211.7024552000221,211.7024552000221,212.00318160001189,space,1,0.29243979998864233,None,212.00356910005212,212.5186128000496,,213.51770349999424,,,,,,,,,,,,,,,,,008,002,2025-05-01_21h27.04.489,Cued GoNogo Task,2024.2.4,60.18052952592581,2025-05-01 21h27.13.960808 +0200,
block/CondBlock1.xlsx,You are about to start a block of type 1 trials.,57,57,0,NoGo,NoGo,0.42,0.2,0.05,none,green,vertical,space,1.067779100034386,None,None,1,,,,,,0,0,0,0,0,57,57,57,213.53411860007327,,,,,,,,,,,,,,,,213.5179083000403,213.53411860007327,214.21728680003434,214.233711100067,214.71675790008157,214.7008907001,214.70168100006413,214.71675790008157,215.1497520999983,215.33298910001758,215.33298910001758,215.81629330001306,None,1,,,215.81854040001053,216.33195800008252,217.33123660006095,217.31504140002653,215.83251960005146,215.83251960005146,,,,,,,,,,,,,,,008,002,2025-05-01_21h27.04.489,Cued GoNogo Task,2024.2.4,60.18052952592581,2025-05-01 21h27.13.960808 +0200,
block/CondBlock1.xlsx,You are about to start a block of type 1 trials.,58,58,0,Go,Go,0.22,0.05,0.2,space,green,horizontal,space,1.067779100034386,None,space,1,0.28671719995327294,None,,,,0,0,0,0,0,58,58,58,217.33123660006095,,,,,,,,,,,,,,,,217.31534170010127,217.33123660006095,218.03056910005398,218.03056910005398,218.52994620008394,218.51413460006006,218.51462860009633,218.52994620008394,218.7634390000021,218.94683450006414,218.94683450006414,219.2472521000309,space,1,0.28671719995327294,None,219.25027410010807,219.7625247000251,220.7617822000757,220.74568640009966,,,,,,,,,,,,,,,,,008,002,2025-05-01_21h27.04.489,Cued GoNogo Task,2024.2.4,60.18052952592581,2025-05-01 21h27.13.960808 +0200,
block/CondBlock1.xlsx,You are about to start a block of type 1 trials.,59,59,0,Go,Go,0.3,0.2,0.05,space,blue,vertical,space,1.067779100034386,None,space,1,0.3333605999359861,None,,,,0,0,0,0,0,59,59,59,220.7617822000757,,,,,,,,,,,,,,,,220.74593480001204,220.7617822000757,221.46108950010967,221.46108950010967,221.96062830009032,221.94478260003962,221.94542060000822,221.96062830009032,222.26039000006858,222.46029650000855,222.46029650000855,222.79553990007844,space,1,0.3333605999359861,None,222.79891150002368,223.30958270002156,224.30864709999878,224.2925822000252,,,,,,,,,,,,,,,,,008,002,2025-05-01_21h27.04.489,Cued GoNogo Task,2024.2.4,60.18052952592581,2025-05-01 21h27.13.960808 +0200,
block/CondBlock1.xlsx,You are about to start a block of type 1 trials.,60,60,0,NoGo,NoGo,0.24,0.2,0.05,none,blue,vertical,space,1.067779100034386,None,space,0,0.2545370999723673,None,,,,0,0,0,0,0,60,60,60,224.30864709999878,,,,,,,,,,,,,,,,224.2927595000947,224.30864709999878,225.00806750007905,225.00806750007905,225.50782940001227,225.4920032999944,225.49270460009575,225.50782940001227,225.75764520000666,225.94060670002364,225.94060670002364,226.20905030006543,space,0,0.2545370999723673,None,226.2175229000859,226.72343680006452,227.72254099999554,227.7064965000609,,,,,,,,,,,,,,,,,008,002,2025-05-01_21h27.04.489,Cued GoNogo Task,2024.2.4,60.18052952592581,2025-05-01 21h27.13.960808 +0200,
block/CondBlock1.xlsx,You are about to start a block of type 1 trials.,61,61,0,NoGo,NoGo,0.1,0.2,0.05,none,green,vertical,space,1.067779100034386,None,None,1,,,,,,0,0,0,0,0,61,61,61,227.72254099999554,,,,,,,,,,,,,,,,227.70671360008419,227.72254099999554,228.42204380000476,228.42204380000476,228.921541800024,228.9054348000791,228.90611630002968,228.921541800024,229.0216267000651,229.2214377000928,229.2214377000928,229.70505079999566,None,1,,,229.7074843000155,230.22067150007933,231.21986170008313,231.20361680001952,229.7209378000116,229.7209378000116,,,,,,,,,,,,,,,008,002,2025-05-01_21h27.04.489,Cued GoNogo Task,2024.2.4,60.18052952592581,2025-05-01 21h27.13.960808 +0200,
block/CondBlock1.xlsx,You are about to start a block of type 1 trials.,62,62,0,Go,Go,0.45,0.05,0.2,space,blue,horizontal,space,1.067779100034386,None,space,1,0.3022459000349045,None,,,,0,0,0,0,0,62,62,62,231.21986170008313,,,,,,,,,,,,,,,,231.2038655000506,231.21986170008313,231.91939130006358,231.91939130006358,232.418724300107,232.4032219001092,232.40400249999948,232.418724300107,232.86834680009633,233.06838250008877,233.06838250008877,233.3858572000172,space,1,0.3022459000349045,None,233.39012240001466,233.90087270003278,234.90007460000925,234.8842893000692,,,,,,,,,,,,,,,,,008,002,2025-05-01_21h27.04.489,Cued GoNogo Task,2024.2.4,60.18052952592581,2025-05-01 21h27.13.960808 +0200,
block/CondBlock1.xlsx,You are about to start a block of type 1 trials.,63,63,0,Go,Go,0.1,0.05,0.2,space,green,horizontal,space,1.067779100034386,None,space,1,0.41158810001797974,None,,,,0,0,0,0,0,63,63,63,234.90007460000925,,,,,,,,,,,,,,,,234.88463169999886,234.90007460000925,235.5994888000423,235.5994888000423,236.0990174000617,236.08290750009473,236.08337420003954,236.0990174000617,236.19898169999942,236.39875080005731,236.39875080005731,236.81646400003228,space,1,0.41158810001797974,None,236.82193540001754,237.33127300010528,238.33040550001897,238.3145595000824,,,,,,,,,,,,,,,,,008,002,2025-05-01_21h27.04.489,Cued GoNogo Task,2024.2.4,60.18052952592581,2025-05-01 21h27.13.960808 +0200,
block/CondBlock1.xlsx,You are about to start a block of type 1 trials.,64,64,0,Go,Go,0.19,0.05,0.2,space,blue,horizontal,space,1.067779100034386,None,space,1,0.3296235000016168,None,,,,0,0,0,0,0,64,64,64,238.33040550001897,,,,,,,,,,,,,,,,238.31481890007854,238.33040550001897,239.03011330007575,239.03011330007575,239.52981620002538,239.51346760010347,239.51388410001528,239.52981620002538,239.7293128001038,239.91276130010374,239.91276130010374,240.24692080006935,space,1,0.3296235000016168,None,240.25092610006686,240.76181960001122,241.76110930007417,241.74520830006804,,,,,,,,,,,,,,,,,008,002,2025-05-01_21h27.04.489,Cued GoNogo Task,2024.2.4,60.18052952592581,2025-05-01 21h27.13.960808 +0200,
block/CondBlock1.xlsx,You are about to start a block of type 1 trials.,65,65,0,Go,Go,0.21,0.2,0.05,space,blue,vertical,space,1.067779100034386,None,space,1,0.33845370006747544,None,,,,0,0,0,0,0,65,65,65,241.76110930007417,,,,,,,,,,,,,,,,241.74554170004558,241.76110930007417,242.46036590007134,242.46036590007134,242.9601357000647,242.9442683000816,242.94496480003,242.9601357000647,243.1766208000481,243.35988900007214,243.35988900007214,243.7106723000761,space,1,0.33845370006747544,None,243.71516780008096,244.2257400000235,245.22480350011028,245.20901039999444,,,,,,,,,,,,,,,,,008,002,2025-05-01_21h27.04.489,Cued GoNogo Task,2024.2.4,60.18052952592581,2025-05-01 21h27.13.960808 +0200,
block/CondBlock1.xlsx,You are about to start a block of type 1 trials.,66,66,0,Go,Go,0.18,0.05,0.2,space,blue,horizontal,space,1.067779100034386,None,space,1,0.3640999000053853,None,,,,0,0,0,0,0,66,66,66,245.22480350011028,,,,,,,,,,,,,,,,245.20933750004042,245.22480350011028,245.9242346000392,245.9242346000392,246.42395710002165,246.4079768001102,246.40861880010925,246.42395710002165,246.60707980010193,246.79027770005632,246.79027770005632,247.15749610005878,space,1,0.3640999000053853,None,247.16143150010612,247.67290480004158,248.67205060005654,248.65622710005846,,,,,,,,,,,,,,,,,008,002,2025-05-01_21h27.04.489,Cued GoNogo Task,2024.2.4,60.18052952592581,2025-05-01 21h27.13.960808 +0200,
block/CondBlock1.xlsx,You are about to start a block of type 1 trials.,67,67,0,Go,Go,0.29,0.2,0.05,space,green,vertical,space,1.067779100034386,None,space,1,0.3200885000405833,None,,,,0,0,0,0,0,67,67,67,248.67205060005654,,,,,,,,,,,,,,,,248.65649980003946,248.67205060005654,249.3713967000367,249.3713967000367,249.87109240004793,249.85500790004153,249.8555730000371,249.87109240004793,250.17088190000504,250.35409400006756,250.35409400006756,250.688264299999,space,1,0.3200885000405833,None,250.6928238000255,251.20332700002473,252.20237310009543,252.18661940004677,,,,,,,,,,,,,,,,,008,002,2025-05-01_21h27.04.489,Cued GoNogo Task,2024.2.4,60.18052952592581,2025-05-01 21h27.13.960808 +0200,
block/CondBlock1.xlsx,You are about to start a block of type 1 trials.,68,68,0,NoGo,NoGo,0.24,0.2,0.05,none,blue,vertical,space,1.067779100034386,None,None,1,,,,,,0,0,0,0,0,68,68,68,252.20237310009543,,,,,,,,,,,,,,,,252.18692700006068,252.20237310009543,252.90187100006733,252.90187100006733,253.40132480009925,253.385393600096,253.38598150003236,253.40132480009925,253.65131760004442,253.83456900005694,253.83456900005694,254.31811870005913,None,1,,,254.32034740003292,254.83362120005768,255.83285230002366,255.81674350006506,254.33389780006837,254.33389780006837,,,,,,,,,,,,,,,008,002,2025-05-01_21h27.04.489,Cued GoNogo Task,2024.2.4,60.18052952592581,2025-05-01 21h27.13.960808 +0200,
block/CondBlock1.xlsx,You are about to start a block of type 1 trials.,69,69,0,Go,Go,0.27,0.05,0.2,space,green,horizontal,space,1.067779100034386,None,space,1,0.33594290004111826,None,,,,0,0,0,0,0,69,69,69,255.83285230002366,,,,,,,,,,,,,,,,255.8170306000393,255.83285230002366,256.53219090006314,256.53219090006314,257.0318179000169,257.01633820007555,257.0171564000193,257.0318179000169,257.3149388000602,257.4981980000157,257.4981980000157,257.8491096000653,space,1,0.33594290004111826,None,257.85357140004635,258.3640691000037,259.3631900000619,259.34725900006015,,,,,,,,,,,,,,,,,008,002,2025-05-01_21h27.04.489,Cued GoNogo Task,2024.2.4,60.18052952592581,2025-05-01 21h27.13.960808 +0200,
block/CondBlock1.xlsx,You are about to start a block of type 1 trials.,70,70,0,Go,Go,0.25,0.2,0.05,space,green,vertical,space,1.067779100034386,None,space,1,0.3112312000012025,None,,,,0,0,0,0,0,70,70,70,259.3631900000619,,,,,,,,,,,,,,,,259.3474796001101,259.3631900000619,260.0626459000632,260.0626459000632,260.5620594000211,260.54649300000165,260.54712950007524,260.5620594000211,260.8121839000378,261.0117767000338,261.0117767000338,261.3292365000816,space,1,0.3112312000012025,None,261.3322621000698,261.8444850000087,262.8439096000511,262.8278389000334,,,,,,,,,,,,,,,,,008,002,2025-05-01_21h27.04.489,Cued GoNogo Task,2024.2.4,60.18052952592581,2025-05-01 21h27.13.960808 +0200,
block/CondBlock1.xlsx,You are about to start a block of type 1 trials.,71,71,0,Go,Go,0.28,0.05,0.2,space,green,horizontal,space,1.067779100034386,None,space,1,0.38940600003115833,None,,,,0,0,0,0,0,71,71,71,262.8439096000511,,,,,,,,,,,,,,,,262.8281827000901,262.8439096000511,263.54296990006696,263.54296990006696,264.04280070005916,264.02698560000863,264.02766110002995,264.04280070005916,264.32589160010684,264.5090578000527,264.5090578000527,264.90996370010544,space,1,0.38940600003115833,None,264.91398920002393,265.42496070009656,266.4242558000842,266.4084051999962,,,,,,,,,,,,,,,,,008,002,2025-05-01_21h27.04.489,Cued GoNogo Task,2024.2.4,60.18052952592581,2025-05-01 21h27.13.960808 +0200,
block/CondBlock1.xlsx,You are about to start a block of type 1 trials.,72,72,0,Go,Go,0.14,0.05,0.2,space,blue,horizontal,space,1.067779100034386,None,space,1,0.34956399991642684,None,,,,0,0,0,0,0,72,72,72,266.4242558000842,,,,,,,,,,,,,,,,266.4087755000219,266.4242558000842,267.12367960007396,267.12367960007396,267.6230772000272,267.6070229000179,267.60763010010123,267.6230772000272,267.77290340000764,267.9563218000112,267.9563218000112,268.3081893000053,space,1,0.34956399991642684,None,268.31227890006267,268.82212530006655,269.8212843000656,269.8054163000779,,,,,,,,,,,,,,,,,008,002,2025-05-01_21h27.04.489,Cued GoNogo Task,2024.2.4,60.18052952592581,2025-05-01 21h27.13.960808 +0200,
block/CondBlock1.xlsx,You are about to start a block of type 1 trials.,73,73,0,Go,Go,0.11,0.05,0.2,space,blue,horizontal,space,1.067779100034386,None,space,1,0.4016409000614658,None,,,,0,0,0,0,0,73,73,73,269.8212843000656,,,,,,,,,,,,,,,,269.8057472000364,269.8212843000656,270.5206860000035,270.5206860000035,271.0202405001037,271.00473100005183,271.00537050003186,271.0202405001037,271.1368148000911,271.3200667001074,271.3200667001074,271.7373211000813,space,1,0.4016409000614658,None,271.7417174000293,272.25289820006583,,273.2520119000692,,,,,,,,,,,,,,,,,008,002,2025-05-01_21h27.04.489,Cued GoNogo Task,2024.2.4,60.18052952592581,2025-05-01 21h27.13.960808 +0200,
block/CondBlock1.xlsx,You are about to start a block of type 1 trials.,74,74,0,Go,Go,0.22,0.2,0.05,space,blue,vertical,space,1.067779100034386,None,space,1,0.29552519996650517,None,,,,0,0,0,0,0,74,74,74,273.2684972001007,,,,,,,,,,,,,,,,273.2522475000005,273.2684972001007,273.9512477000244,273.9679058000911,274.4508241000585,274.4354105000384,274.4360801000148,274.4508241000585,274.68394580006134,274.86732970003504,274.86732970003504,275.16823100007605,space,1,0.29552519996650517,None,275.1716060000472,275.6832833000226,276.6823532000417,276.6667108000256,,,,,,,,,,,,,,,,,008,002,2025-05-01_21h27.04.489,Cued GoNogo Task,2024.2.4,60.18052952592581,2025-05-01 21h27.13.960808 +0200,
block/CondBlock1.xlsx,You are about to start a block of type 1 trials.,75,75,0,Go,Go,0.26,0.05,0.2,space,blue,horizontal,space,1.067779100034386,None,space,1,0.2145419999724254,None,,,,0,0,0,0,0,75,75,75,276.6823532000417,,,,,,,,,,,,,,,,276.6670102000935,276.6823532000417,277.38168900005985,277.38168900005985,277.8813991000643,277.8652762999991,277.8658744000131,277.8813991000643,278.1478495000629,278.3309744000435,278.3309744000435,278.5484651000006,space,1,0.2145419999724254,None,278.5523267000681,279.06375600001775,280.0629114001058,280.0468497000402,,,,,,,,,,,,,,,,,008,002,2025-05-01_21h27.04.489,Cued GoNogo Task,2024.2.4,60.18052952592581,2025-05-01 21h27.13.960808 +0200,
block/CondBlock1.xlsx,You are about to start a block of type 1 trials.,76,76,0,Go,Go,0.14,0.2,0.05,space,green,vertical,space,1.067779100034386,None,space,1,0.2955713999690488,None,,,,0,0,0,0,0,76,76,76,280.0629114001058,,,,,,,,,,,,,,,,280.04703760007396,280.0629114001058,280.76234860008117,280.76234860008117,281.2618171001086,281.24583230004646,281.2464542000089,281.2618171001086,281.4118445001077,281.59486090007704,281.59486090007704,281.89599680004176,space,1,0.2955713999690488,None,281.9004804000724,282.4109415001003,283.41023090004455,283.39435990003403,,,,,,,,,,,,,,,,,008,002,2025-05-01_21h27.04.489,Cued GoNogo Task,2024.2.4,60.18052952592581,2025-05-01 21h27.13.960808 +0200,
block/CondBlock1.xlsx,You are about to start a block of type 1 trials.,77,77,0,Go,Go,0.18,0.05,0.2,space,green,horizontal,space,1.067779100034386,None,space,1,0.29080910002812743,None,,,,0,0,0,0,0,77,77,77,283.41023090004455,,,,,,,,,,,,,,,,283.394584499998,283.41023090004455,284.10945400001947,284.10945400001947,284.60908120009117,284.5931141000474,284.5937146000797,284.60908120009117,284.79235540004447,284.97560330003034,284.97560330003034,285.27622900006827,space,1,0.29080910002812743,None,285.27975960006006,285.7915448000422,286.79060080007184,286.77491340006236,,,,,,,,,,,,,,,,,008,002,2025-05-01_21h27.04.489,Cued GoNogo Task,2024.2.4,60.18052952592581,2025-05-01 21h27.13.960808 +0200,
block/CondBlock1.xlsx,You are about to start a block of type 1 trials.,78,78,0,NoGo,NoGo,0.27,0.05,0.2,none,blue,horizontal,space,1.067779100034386,None,space,0,0.2664793999865651,None,,,,0,0,0,0,0,78,78,78,286.79060080007184,,,,,,,,,,,,,,,,286.7752360000741,286.79060080007184,287.4900357000297,287.4900357000297,287.98967570008244,287.9736609000247,287.97412780008744,287.98967570008244,288.27298000000883,288.4561174000846,288.4561174000846,288.72510390006937,space,0,0.2664793999865651,None,288.7300629999954,289.23872980009764,290.23781880002934,290.22234960005153,,,,,,,,,,,,,,,,,008,002,2025-05-01_21h27.04.489,Cued GoNogo Task,2024.2.4,60.18052952592581,2025-05-01 21h27.13.960808 +0200,
block/CondBlock1.xlsx,You are about to start a block of type 1 trials.,79,79,0,NoGo,NoGo,0.26,0.2,0.05,none,blue,vertical,space,1.067779100034386,None,None,1,,,,,,0,0,0,0,0,79,79,79,290.23781880002934,,,,,,,,,,,,,,,,290.2226446000859,290.23781880002934,290.9374125000322,290.9374125000322,291.4368422999978,291.42098020005506,291.4215943000745,291.4368422999978,291.7032868000679,291.88676260004286,291.88676260004286,292.3697795000626,None,1,,,292.3722492000088,292.86894910002593,293.8682494000532,293.8525164000457,292.3860155000584,292.3860155000584,,,,,,,,,,,,,,,008,002,2025-05-01_21h27.04.489,Cued GoNogo Task,2024.2.4,60.18052952592581,2025-05-01 21h27.13.960808 +0200,
block/CondBlock1.xlsx,You are about to start a block of type 1 trials.,80,80,0,Go,Go,0.22,0.2,0.05,space,green,vertical,space,1.067779100034386,None,space,1,0.4067415999015793,None,,,,0,0,0,0,0,80,80,80,293.8682494000532,,,,,,,,,,,,,,,,293.8528612999944,293.8849043000955,294.5844023000682,294.5844023000682,295.0838067000732,295.0680282000685,295.06870000006165,295.0838067000732,295.31700120004825,295.5004055000609,295.5004055000609,295.9175610000966,space,1,0.4067415999015793,None,295.92136230005417,296.4327594001079,297.431782700005,297.4163694001036,,,,,,,,,,,,,,,,,008,002,2025-05-01_21h27.04.489,Cued GoNogo Task,2024.2.4,60.18052952592581,2025-05-01 21h27.13.960808 +0200,
block/CondBlock1.xlsx,You are about to start a block of type 1 trials.,81,81,0,Go,Go,0.5,0.2,0.05,space,green,vertical,space,1.067779100034386,None,space,1,0.34323689993470907,None,,,,0,0,0,0,0,81,81,81,297.431782700005,,,,,,,,,,,,,,,,297.416687100078,297.431782700005,298.13144610007294,298.13144610007294,298.63101270003244,298.6147359000752,298.61530460009817,298.63101270003244,299.130509300041,299.33035850001033,299.33035850001033,299.68108350003604,space,1,0.34323689993470907,None,299.6848171000602,300.1963234000141,301.19555639999453,301.17970060009975,,,,,,,,,,,,,,,,,008,002,2025-05-01_21h27.04.489,Cued GoNogo Task,2024.2.4,60.18052952592581,2025-05-01 21h27.13.960808 +0200,
block/CondBlock1.xlsx,You are about to start a block of type 1 trials.,82,82,0,Go,Go,0.43,0.05,0.2,space,green,horizontal,space,1.067779100034386,None,space,1,0.3120824000798166,None,,,,0,0,0,0,0,82,82,82,301.19555639999453,,,,,,,,,,,,,,,,301.1800733000273,301.19555639999453,301.8949191001011,301.8949191001011,302.39458240009844,302.3787117000902,302.37938350008335,302.39458240009844,302.82753110001795,303.01078460004646,303.01078460004646,303.3281134000281,space,1,0.3120824000798166,None,303.33099080005195,303.84360420005396,,304.8425741000101,,,,,,,,,,,,,,,,,008,002,2025-05-01_21h27.04.489,Cued GoNogo Task,2024.2.4,60.18052952592581,2025-05-01 21h27.13.960808 +0200,
block/CondBlock1.xlsx,You are about to start a block of type 1 trials.,83,83,0,Go,Go,0.25,0.2,0.05,space,green,vertical,space,1.067779100034386,None,space,1,0.22438819997478276,None,,,,0,0,0,0,0,83,83,83,304.8590769000584,,,,,,,,,,,,,,,,304.8427853001049,304.8590769000584,305.5421178000979,305.5585120000178,306.0415289000375,306.0256918000523,306.0263632000424,306.0415289000375,306.2912529000314,306.49106690008193,306.49106690008193,306.72534870007075,space,1,0.22438819997478276,None,306.7304970000405,307.240534300101,308.23983810003847,308.2236154000275,,,,,,,,,,,,,,,,,008,002,2025-05-01_21h27.04.489,Cued GoNogo Task,2024.2.4,60.18052952592581,2025-05-01 21h27.13.960808 +0200,
block/CondBlock1.xlsx,You are about to start a block of type 1 trials.,84,84,0,NoGo,NoGo,0.14,0.2,0.05,none,green,vertical,space,1.067779100034386,None,None,1,,,,,,0,0,0,0,0,84,84,84,308.23983810003847,,,,,,,,,,,,,,,,308.22383800009266,308.23983810003847,308.9392043000553,308.9392043000553,309.4387121000327,309.4225345000159,309.42303730000276,309.4387121000327,309.588453900069,309.77196160005406,309.77196160005406,310.25562660000287,None,1,,,310.2582616000436,310.77116780006327,,311.77022940001916,310.27114379999693,310.27114379999693,,,,,,,,,,,,,,,008,002,2025-05-01_21h27.04.489,Cued GoNogo Task,2024.2.4,60.18052952592581,2025-05-01 21h27.13.960808 +0200,
block/CondBlock1.xlsx,You are about to start a block of type 1 trials.,85,85,0,Go,Go,0.2,0.05,0.2,space,blue,horizontal,space,1.067779100034386,None,space,1,0.26501650002319366,None,,,,0,0,0,0,0,85,85,85,311.7867078999989,,,,,,,,,,,,,,,,311.77049050002825,311.7867078999989,312.46951389999595,312.48613040009513,312.9690260000061,312.95362030004617,312.9543635000009,312.9690260000061,313.16907669999637,313.36882470001,313.36882470001,313.6367912000278,space,1,0.26501650002319366,None,313.64037440007087,314.15144950000104,315.15067610004917,315.1347900000401,,,,,,,,,,,,,,,,,008,002,2025-05-01_21h27.04.489,Cued GoNogo Task,2024.2.4,60.18052952592581,2025-05-01 21h27.13.960808 +0200,
block/CondBlock1.xlsx,You are about to start a block of type 1 trials.,86,86,0,Go,Go,0.16,0.2,0.05,space,blue,vertical,space,1.067779100034386,None,space,1,0.3431633000727743,None,,,,0,0,0,0,0,86,86,86,315.15067610004917,,,,,,,,,,,,,,,,315.1350551000796,315.15067610004917,315.85002320003696,315.85002320003696,316.34987960010767,316.3338111001067,316.3344842001097,316.34987960010767,316.5161564000882,316.69940700009465,316.69940700009465,317.050363700022,space,1,0.3431633000727743,None,317.0543387000216,317.56549410009757,318.56451300007757,318.5490661000367,,,,,,,,,,,,,,,,,008,002,2025-05-01_21h27.04.489,Cued GoNogo Task,2024.2.4,60.18052952592581,2025-05-01 21h27.13.960808 +0200,
block/CondBlock1.xlsx,You are about to start a block of type 1 trials.,87,87,0,Go,Go,0.41,0.2,0.05,space,green,vertical,space,1.067779100034386,None,space,1,0.36672859999816865,None,,,,0,0,0,0,0,87,87,87,318.56451300007757,,,,,,,,,,,,,,,,318.54942799999844,318.56451300007757,319.2639734999975,319.2639734999975,319.76349320006557,319.74742250004783,319.74791300005745,319.76349320006557,320.18009979999624,320.3630688000703,320.3630688000703,320.73195240006316,space,1,0.36672859999816865,None,320.7352673000423,321.2454945000354,322.2448552000569,322.22865080006886,,,,,,,,,,,,,,,,,008,002,2025-05-01_21h27.04.489,Cued GoNogo Task,2024.2.4,60.18052952592581,2025-05-01 21h27.13.960808 +0200,
block/CondBlock1.xlsx,You are about to start a block of type 1 trials.,88,88,0,NoGo,NoGo,0.15,0.2,0.05,none,green,vertical,space,1.067779100034386,None,None,1,,,,,,0,0,0,0,0,88,88,88,322.2448552000569,,,,,,,,,,,,,,,,322.22887720004655,322.2448552000569,322.9449066000525,322.9449066000525,,323.44387000007555,323.4445058000274,323.4604954000097,323.6104022000218,323.7935807000613,323.7935807000613,324.27732940006536,None,1,,,324.27955780003686,324.7928788000718,325.79190400009975,325.77625080000143,324.29312670009676,324.29312670009676,,,,,,,,,,,,,,,008,002,2025-05-01_21h27.04.489,Cued GoNogo Task,2024.2.4,60.18052952592581,2025-05-01 21h27.13.960808 +0200,
block/CondBlock1.xlsx,You are about to start a block of type 1 trials.,89,89,0,Go,Go,0.24,0.05,0.2,space,blue,horizontal,space,1.067779100034386,None,space,1,0.354357699980028,None,,,,0,0,0,0,0,89,89,89,325.79190400009975,,,,,,,,,,,,,,,,325.77656440006103,325.79190400009975,326.49135270004626,326.49135270004626,326.9909707000479,326.97497380001005,326.97552440001164,326.9909707000479,327.2406972000608,327.423800000106,327.423800000106,327.79145690007135,space,1,0.354357699980028,None,327.79617890005466,328.3065578000387,329.3055586999981,329.28958630003035,,,,,,,,,,,,,,,,,008,002,2025-05-01_21h27.04.489,Cued GoNogo Task,2024.2.4,60.18052952592581,2025-05-01 21h27.13.960808 +0200,
block/CondBlock1.xlsx,You are about to start a block of type 1 trials.,90,90,0,Go,Go,0.25,0.2,0.05,space,blue,vertical,space,1.067779100034386,None,space,1,0.38333159999456257,None,,,,0,0,0,0,0,90,90,90,329.3055586999981,,,,,,,,,,,,,,,,329.2898264999967,329.3055586999981,330.0053756000707,330.0053756000707,330.5046377000399,330.4887444000924,330.4893330000341,330.5046377000399,330.7544639999978,330.95451350009535,330.95451350009535,331.3558688000776,space,1,0.38333159999456257,None,331.36052030010615,331.87013890000526,332.86948200000916,332.8537026999984,,,,,,,,,,,,,,,,,008,002,2025-05-01_21h27.04.489,Cued GoNogo Task,2024.2.4,60.18052952592581,2025-05-01 21h27.13.960808 +0200,
block/CondBlock1.xlsx,You are about to start a block of type 1 trials.,91,91,0,Go,Go,0.26,0.05,0.2,space,green,horizontal,space,1.067779100034386,None,space,1,0.25225280004087836,None,,,,0,0,0,0,0,91,91,91,332.86948200000916,,,,,,,,,,,,,,,,332.85403090005275,332.86948200000916,333.5688386000693,333.5688386000693,334.06830730009824,334.05256350000855,334.0532151000807,334.06830730009824,334.33514160010964,334.5181352000218,334.5181352000218,334.7856046000961,space,1,0.25225280004087836,None,334.79086440009996,335.30083110008854,336.29997680010274,336.28405580006074,,,,,,,,,,,,,,,,,008,002,2025-05-01_21h27.04.489,Cued GoNogo Task,2024.2.4,60.18052952592581,2025-05-01 21h27.13.960808 +0200,
block/CondBlock1.xlsx,You are about to start a block of type 1 trials.,92,92,0,NoGo,NoGo,0.44,0.2,0.05,none,blue,vertical,space,1.067779100034386,None,None,1,,,,,,0,0,0,0,0,92,92,92,336.29997680010274,,,,,,,,,,,,,,,,336.28428470005747,336.29997680010274,336.9993568001082,336.9993568001082,337.498844500049,337.4830693000695,337.4838209000882,337.498844500049,337.94871020002756,338.1316537000239,338.1316537000239,338.6153989000013,None,1,,,338.6182033000514,339.1310747000389,340.13003750005737,340.1140676001087,338.63135190005414,338.63135190005414,,,,,,,,,,,,,,,008,002,2025-05-01_21h27.04.489,Cued GoNogo Task,2024.2.4,60.18052952592581,2025-05-01 21h27.13.960808 +0200,
block/CondBlock1.xlsx,You are about to start a block of type 1 trials.,93,93,0,Go,Go,0.13,0.2,0.05,space,green,vertical,space,1.067779100034386,None,space,1,0.2771237000124529,None,,,,0,0,0,0,0,93,93,93,340.13003750005737,,,,,,,,,,,,,,,,340.11428780003916,340.13003750005737,340.8295200000284,340.8295200000284,341.32900120003615,341.3131440000143,341.31367780000437,341.32900120003615,341.4623784000287,341.6455335000064,341.6455335000064,341.9298999001039,space,1,0.2771237000124529,None,341.93352250009775,342.4449899001047,343.44410409999546,343.42835699999705,,,,,,,,,,,,,,,,,008,002,2025-05-01_21h27.04.489,Cued GoNogo Task,2024.2.4,60.18052952592581,2025-05-01 21h27.13.960808 +0200,
block/CondBlock1.xlsx,You are about to start a block of type 1 trials.,94,94,0,Go,Go,0.44,0.05,0.2,space,blue,horizontal,space,1.067779100034386,None,space,1,0.2379992000060156,None,,,,0,0,0,0,0,94,94,94,343.44410409999546,,,,,,,,,,,,,,,,343.4286151000997,343.44410409999546,344.1435075000627,344.1435075000627,344.64308020006865,344.62710260006133,344.6276990000624,344.64308020006865,345.0926271000644,345.2760739000514,345.2760739000514,345.52662410004996,space,1,0.2379992000060156,None,345.53014800010715,346.04187600000296,347.0411565999966,347.0251071000239,,,,,,,,,,,,,,,,,008,002,2025-05-01_21h27.04.489,Cued GoNogo Task,2024.2.4,60.18052952592581,2025-05-01 21h27.13.960808 +0200,
block/CondBlock1.xlsx,You are about to start a block of type 1 trials.,95,95,0,Go,Go,0.15,0.2,0.05,space,green,vertical,space,1.067779100034386,None,space,1,0.2520315999863669,None,,,,0,0,0,0,0,95,95,95,347.0411565999966,,,,,,,,,,,,,,,,347.0253202000167,347.0411565999966,347.74053390009794,347.74053390009794,348.24002830008976,348.2242875000229,348.22499420004897,348.24002830008976,348.3900159000186,348.58999790006783,348.58999790006783,348.8578529000515,space,1,0.2520315999863669,None,348.861795200035,349.3724495000206,350.3716575000435,350.3559756000759,,,,,,,,,,,,,,,,,008,002,2025-05-01_21h27.04.489,Cued GoNogo Task,2024.2.4,60.18052952592581,2025-05-01 21h27.13.960808 +0200,
block/CondBlock1.xlsx,You are about to start a block of type 1 trials.,96,96,0,Go,Go,0.49,0.2,0.05,space,green,vertical,space,1.067779100034386,None,space,1,0.3658677999628708,None,,,,0,0,0,0,0,96,96,96,350.3716575000435,,,,,,,,,,,,,,,,350.35623990010936,350.3716575000435,351.0712429000996,351.0712429000996,351.57064640009776,351.55484880006406,351.55551970005035,351.57064640009776,352.0704256000463,352.25357780000195,352.25357780000195,352.62212700000964,space,1,0.3658677999628708,None,352.6261539000552,353.1361756999977,354.1352269001072,354.11939900007565,,,,,,,,,,,,,,,,,008,002,2025-05-01_21h27.04.489,Cued GoNogo Task,2024.2.4,60.18052952592581,2025-05-01 21h27.13.960808 +0200,
block/CondBlock1.xlsx,You are about to start a block of type 1 trials.,97,97,0,Go,Go,0.11,0.2,0.05,space,blue,vertical,space,1.067779100034386,None,space,1,0.30510330002289265,None,,,,0,0,0,0,0,97,97,97,354.1352269001072,,,,,,,,,,,,,,,,354.1196768000955,354.1352269001072,354.83473610004876,354.83473610004876,355.33438430004753,355.31837920006365,355.31890830001794,355.33438430004753,355.45087970001623,355.6340614000801,355.6340614000801,355.95178910007235,space,1,0.30510330002289265,None,355.954421200091,356.46665110008325,357.4658907999983,357.45015780010726,,,,,,,,,,,,,,,,,008,002,2025-05-01_21h27.04.489,Cued GoNogo Task,2024.2.4,60.18052952592581,2025-05-01 21h27.13.960808 +0200,
block/CondBlock1.xlsx,You are about to start a block of type 1 trials.,98,98,0,Go,Go,0.26,0.05,0.2,space,green,horizontal,space,1.067779100034386,None,space,1,0.26422650006134063,None,,,,0,0,0,0,0,98,98,98,357.4658907999983,,,,,,,,,,,,,,,,357.4504105000524,357.4658907999983,358.165250100079,358.165250100079,358.6647624000907,358.6491216000868,358.6498039000435,358.6647624000907,358.93136730010156,359.1145845000865,359.1145845000865,359.3823659000918,space,1,0.26422650006134063,None,359.3864370000083,359.8972243000753,360.89628760004416,360.8804662000621,,,,,,,,,,,,,,,,,008,002,2025-05-01_21h27.04.489,Cued GoNogo Task,2024.2.4,60.18052952592581,2025-05-01 21h27.13.960808 +0200,
block/CondBlock1.xlsx,You are about to start a block of type 1 trials.,99,99,0,Go,Go,0.28,0.05,0.2,space,green,horizontal,space,1.067779100034386,None,space,1,0.30447190010454506,None,,,,0,0,0,0,0,99,99,99,360.89628760004416,,,,,,,,,,,,,,,,360.880744800088,360.89628760004416,361.5958103000885,361.5958103000885,362.0955140000442,362.07943430007435,362.08000710001215,362.0955140000442,362.3785345000215,362.5618472000351,362.5618472000351,362.87953950010706,space,1,0.30447190010454506,None,362.8833905000938,363.3943127000239,364.393462200067,364.3776387000689,,,,,,,,,,,,,,,,,008,002,2025-05-01_21h27.04.489,Cued GoNogo Task,2024.2.4,60.18052952592581,2025-05-01 21h27.13.960808 +0200,
block/CondBlock1.xlsx,You are about to start a block of type 1 trials.,0,0,0,,,,,,,,,space,1.067779100034386,None,,,,,space,0.8892136999638751,None,0,0,0,0,,,,,,,,,,,,,,,,,,,,,,,,,,,,,,,,,,,,,,,,,,,364.39045960002113,364.393462200067,364.393462200067,365.29450000007637,space,0.8892136999638751,None,,,,,,,,008,002,2025-05-01_21h27.04.489,Cued GoNogo Task,2024.2.4,60.18052952592581,2025-05-01 21h27.13.960808 +0200,
block/CondBlock2.xlsx,You are about to start a block of type 2 trials.,0,0,0,Go,Go,0.18,0.05,0.2,space,green,horizontal,space,261.37226360000204,None,space,1,0.34117339993827045,None,,,,0,1,1,1,0,0,0,0,626.7169141001068,,,,,,,,,365.2992519000545,365.30944480001926,365.30944480001926,626.6959066001,space,261.37226360000204,None,626.7147556000855,626.7169141001068,627.4105339000234,627.4272840000922,627.9101157000987,627.8944396000588,627.8949159000767,627.9101157000987,628.0931950000813,628.2767237001099,628.2767237001099,628.6281853000401,space,1,0.34117339993827045,None,628.6345231001033,629.1423543000128,630.1417027000571,630.1258859999944,,,,,,,,,,,,,,,,,008,002,2025-05-01_21h27.04.489,Cued GoNogo Task,2024.2.4,60.18052952592581,2025-05-01 21h27.13.960808 +0200,
block/CondBlock2.xlsx,You are about to start a block of type 2 trials.,1,1,0,Go,Go,0.2,0.2,0.05,space,green,vertical,space,261.37226360000204,None,space,1,0.2940641000168398,None,,,,0,1,1,1,0,1,1,1,630.1417027000571,,,,,,,,,,,,,,,,630.1262377999956,630.1417027000571,630.8412320000352,630.8412320000352,631.3407221999951,631.3249611000065,631.3258015000029,631.3407221999951,631.5405346000334,631.7402703000698,631.7402703000698,632.0411438000156,space,1,0.2940641000168398,None,632.0446167000337,632.5563185000792,633.5555558000924,633.5394054000499,,,,,,,,,,,,,,,,,008,002,2025-05-01_21h27.04.489,Cued GoNogo Task,2024.2.4,60.18052952592581,2025-05-01 21h27.13.960808 +0200,
block/CondBlock2.xlsx,You are about to start a block of type 2 trials.,2,2,0,Go,Go,0.22,0.05,0.2,space,blue,horizontal,space,261.37226360000204,None,space,1,0.2955750999972224,None,,,,0,1,1,1,0,2,2,2,633.5555558000924,,,,,,,,,,,,,,,,633.5396369000664,633.5555558000924,634.2548305999953,634.2548305999953,634.7544510000153,634.738705100026,634.7394949001027,634.7544510000153,634.9877377001103,635.1707177000353,635.1707177000353,635.4717947000172,space,1,0.2955750999972224,None,635.4756907999981,635.9868188000983,636.9859655000037,636.9702006001025,,,,,,,,,,,,,,,,,008,002,2025-05-01_21h27.04.489,Cued GoNogo Task,2024.2.4,60.18052952592581,2025-05-01 21h27.13.960808 +0200,
block/CondBlock2.xlsx,You are about to start a block of type 2 trials.,3,3,0,Go,Go,0.14,0.05,0.2,space,green,horizontal,space,261.37226360000204,None,space,1,0.25208819995168597,None,,,,0,1,1,1,0,3,3,3,636.9859655000037,,,,,,,,,,,,,,,,636.970489300089,636.9859655000037,637.6854811001103,637.6854811001103,638.185065500089,638.1695494001033,638.1704913000576,638.185065500089,638.3349413000979,638.5182141000405,638.5182141000405,638.7856991000008,space,1,0.25208819995168597,None,638.7898987000808,639.3007462000242,640.2998442000244,640.2839989000931,,,,,,,,,,,,,,,,,008,002,2025-05-01_21h27.04.489,Cued GoNogo Task,2024.2.4,60.18052952592581,2025-05-01 21h27.13.960808 +0200,
block/CondBlock2.xlsx,You are about to start a block of type 2 trials.,4,4,0,Go,Go,0.26,0.05,0.2,space,blue,horizontal,space,261.37226360000204,None,space,1,0.3011907000327483,None,,,,0,1,1,1,0,4,4,4,640.2998442000244,,,,,,,,,,,,,,,,640.2842925000004,640.2998442000244,640.9994558000471,640.9994558000471,641.4991729001049,641.4829773000674,641.4835868000519,641.4991729001049,641.7654087000992,641.9485470000654,641.9485470000654,642.2660766000627,space,1,0.3011907000327483,None,642.27087820007,642.7813998000929,,643.7803932999959,,,,,,,,,,,,,,,,,008,002,2025-05-01_21h27.04.489,Cued GoNogo Task,2024.2.4,60.18052952592581,2025-05-01 21h27.13.960808 +0200,
block/CondBlock2.xlsx,You are about to start a block of type 2 trials.,5,5,0,Go,Go,0.1,0.05,0.2,space,blue,horizontal,space,261.37226360000204,None,space,1,0.2917730000335723,None,,,,0,1,1,1,0,5,5,5,643.7968877000967,,,,,,,,,,,,,,,,643.780639500008,643.7968877000967,644.4797659000615,644.4963762999978,644.9794515999965,644.9635429000482,644.9642715000082,644.9794515999965,645.0792144000297,645.2791980000911,645.2791980000911,645.5805056000827,space,1,0.2917730000335723,None,645.584352600039,646.0949548000935,647.0942309000529,647.0786078000674,,,,,,,,,,,,,,,,,008,002,2025-05-01_21h27.04.489,Cued GoNogo Task,2024.2.4,60.18052952592581,2025-05-01 21h27.13.960808 +0200,
block/CondBlock2.xlsx,You are about to start a block of type 2 trials.,6,6,0,NoGo,NoGo,0.3,0.2,0.05,none,green,vertical,space,261.37226360000204,None,None,1,,,,,,0,1,1,1,0,6,6,6,647.0942309000529,,,,,,,,,,,,,,,,647.0789185001049,647.0942309000529,647.7938328000018,647.7938328000018,648.2933464000234,648.2777751000831,648.2784130000509,648.2933464000234,648.5931800000835,648.7929895000998,648.7929895000998,649.2764840000309,None,1,,,649.2783593001077,649.7923107000533,,650.7914300000994,649.2925868000602,649.2925868000602,,,,,,,,,,,,,,,008,002,2025-05-01_21h27.04.489,Cued GoNogo Task,2024.2.4,60.18052952592581,2025-05-01 21h27.13.960808 +0200,
block/CondBlock2.xlsx,You are about to start a block of type 2 trials.,7,7,0,NoGo,NoGo,0.14,0.05,0.2,none,blue,horizontal,space,261.37226360000204,None,space,0,0.23072669992689043,None,,,,0,1,1,1,0,7,7,7,650.8080171000911,,,,,,,,,,,,,,,,650.7916927000042,650.8080171000911,651.4907583000604,651.5072987000458,651.9903518001083,651.9745790000306,651.9754115000833,651.9903518001083,652.1401370000094,652.3235480000731,652.3235480000731,652.5580484000966,space,0,0.23072669992689043,None,652.5627018000232,653.0727896000026,654.0719926001038,654.0558893000707,,,,,,,,,,,,,,,,,008,002,2025-05-01_21h27.04.489,Cued GoNogo Task,2024.2.4,60.18052952592581,2025-05-01 21h27.13.960808 +0200,
block/CondBlock2.xlsx,You are about to start a block of type 2 trials.,8,8,0,Go,Go,0.13,0.2,0.05,space,blue,vertical,space,261.37226360000204,None,space,1,0.3502022000029683,None,,,,0,1,1,1,0,8,8,8,654.0719926001038,,,,,,,,,,,,,,,,654.05614780006,654.0719926001038,654.771358500002,654.771358500002,655.2708816000959,655.2551042000996,655.2558059000876,655.2708816000959,655.4040532000363,655.587350100046,655.587350100046,655.9550385000184,space,1,0.3502022000029683,None,655.9591233000392,656.4699762000237,657.4691987000406,657.4532754000975,,,,,,,,,,,,,,,,,008,002,2025-05-01_21h27.04.489,Cued GoNogo Task,2024.2.4,60.18052952592581,2025-05-01 21h27.13.960808 +0200,
block/CondBlock2.xlsx,You are about to start a block of type 2 trials.,9,9,0,Go,Go,0.43,0.2,0.05,space,green,vertical,space,261.37226360000204,None,space,1,0.30308290000539273,None,,,,0,1,1,1,0,9,9,9,657.4691987000406,,,,,,,,,,,,,,,,657.4535817001015,657.4691987000406,658.1685918000294,658.1685918000294,658.6679479000159,658.6519289000425,658.6523946000962,658.6679479000159,659.1011931000976,659.2843388000038,659.2843388000038,659.6018532000016,space,1,0.30308290000539273,None,659.6051600000355,660.1168535000179,661.1160688000964,661.1001826000866,,,,,,,,,,,,,,,,,008,002,2025-05-01_21h27.04.489,Cued GoNogo Task,2024.2.4,60.18052952592581,2025-05-01 21h27.13.960808 +0200,
block/CondBlock2.xlsx,You are about to start a block of type 2 trials.,10,10,0,Go,Go,0.14,0.2,0.05,space,green,vertical,space,261.37226360000204,None,space,1,0.41058470006100833,None,,,,0,1,1,1,0,10,10,10,661.1160688000964,,,,,,,,,,,,,,,,661.1004467000021,661.1160688000964,661.8155552000972,661.8155552000972,662.315233600093,662.299068100052,662.2998385000974,662.315233600093,662.4649747000076,662.6481688000495,662.6481688000495,663.065491000074,space,1,0.41058470006100833,None,663.0687886000378,663.5808003999991,664.5799028000329,664.5640718000941,,,,,,,,,,,,,,,,,008,002,2025-05-01_21h27.04.489,Cued GoNogo Task,2024.2.4,60.18052952592581,2025-05-01 21h27.13.960808 +0200,
block/CondBlock2.xlsx,You are about to start a block of type 2 trials.,11,11,0,Go,Go,0.27,0.2,0.05,space,green,vertical,space,261.37226360000204,None,space,1,0.23657109995838255,None,,,,0,1,1,1,0,11,11,11,664.5799028000329,,,,,,,,,,,,,,,,664.5643183001084,664.5799028000329,665.2794615000021,665.2794615000021,665.7788999000331,665.7631165001076,665.763776000007,665.7788999000331,666.0619930000976,666.2451608000556,666.2451608000556,666.4962632000679,space,1,0.23657109995838255,None,666.4995220000856,667.0113036000403,668.010470700101,667.9950655000284,,,,,,,,,,,,,,,,,008,002,2025-05-01_21h27.04.489,Cued GoNogo Task,2024.2.4,60.18052952592581,2025-05-01 21h27.13.960808 +0200,
block/CondBlock2.xlsx,You are about to start a block of type 2 trials.,12,12,0,Go,Go,0.3,0.05,0.2,space,green,horizontal,space,261.37226360000204,None,space,1,0.3574292999692261,None,,,,0,1,1,1,0,12,12,12,668.010470700101,,,,,,,,,,,,,,,,667.9955113000469,668.010470700101,668.7098103000317,668.7098103000317,669.2094291000394,669.1934682000428,669.1941041999962,669.2094291000394,669.5092047000071,669.7091445000842,669.7091445000842,670.0766881000018,space,1,0.3574292999692261,None,670.0807343000779,670.5917944000103,671.5908347000368,671.5749084000709,,,,,,,,,,,,,,,,,008,002,2025-05-01_21h27.04.489,Cued GoNogo Task,2024.2.4,60.18052952592581,2025-05-01 21h27.13.960808 +0200,
block/CondBlock2.xlsx,You are about to start a block of type 2 trials.,13,13,0,Go,Go,0.18,0.2,0.05,space,blue,vertical,space,261.37226360000204,None,space,1,0.2627363000065088,None,,,,0,1,1,1,0,13,13,13,671.5908347000368,,,,,,,,,,,,,,,,671.5751963000512,671.5908347000368,672.2904548000079,672.2904548000079,672.7897997000255,672.7737388000824,672.7742073000409,672.7897997000255,672.9730142001063,673.1562271000585,673.1562271000585,673.4239474000642,space,1,0.2627363000065088,None,673.42706310004,673.939124400029,,674.9384338000091,,,,,,,,,,,,,,,,,008,002,2025-05-01_21h27.04.489,Cued GoNogo Task,2024.2.4,60.18052952592581,2025-05-01 21h27.13.960808 +0200,
block/CondBlock2.xlsx,You are about to start a block of type 2 trials.,14,14,0,Go,Go,0.13,0.2,0.05,space,green,vertical,space,261.37226360000204,None,space,1,0.27679410006385297,None,,,,0,1,1,1,0,14,14,14,674.954754000064,,,,,,,,,,,,,,,,674.939077100018,674.954754000064,675.6376830000663,675.6541318000527,676.136908100103,676.1215428001015,676.1223285000306,676.136908100103,676.2702313000336,676.4536729000974,676.4536729000974,676.7374840000411,space,1,0.27679410006385297,None,676.740326100029,677.2528909000102,678.2520948000019,678.2360295000253,,,,,,,,,,,,,,,,,008,002,2025-05-01_21h27.04.489,Cued GoNogo Task,2024.2.4,60.18052952592581,2025-05-01 21h27.13.960808 +0200,
block/CondBlock2.xlsx,You are about to start a block of type 2 trials.,15,15,0,Go,Go,0.18,0.2,0.05,space,blue,vertical,space,261.37226360000204,None,space,1,0.19391749997157604,None,,,,0,1,1,1,0,15,15,15,678.2520948000019,,,,,,,,,,,,,,,,678.2362991000991,678.2520948000019,678.9514084000839,678.9514084000839,679.4510805000318,679.4353210000554,679.4360528000398,679.4510805000318,679.6342276000651,679.8173986000475,679.8173986000475,680.0183359000366,space,1,0.19391749997157604,None,680.0228247001069,680.5334856000263,681.532614100026,681.5167894000188,,,,,,,,,,,,,,,,,008,002,2025-05-01_21h27.04.489,Cued GoNogo Task,2024.2.4,60.18052952592581,2025-05-01 21h27.13.960808 +0200,
block/CondBlock2.xlsx,You are about to start a block of type 2 trials.,16,16,0,Go,Go,0.24,0.2,0.05,space,green,vertical,space,261.37226360000204,None,space,1,0.2540787000907585,None,,,,0,1,1,1,0,16,16,16,681.532614100026,,,,,,,,,,,,,,,,681.517084900057,681.532614100026,682.2320163000841,682.2320163000841,682.7317677000538,682.7157818000996,682.7163978000171,682.7317677000538,682.9814055000897,683.1648199000629,683.1648199000629,683.4326805000892,space,1,0.2540787000907585,None,683.4365897000534,683.9473529000534,684.9465112000471,684.9308194000041,,,,,,,,,,,,,,,,,008,002,2025-05-01_21h27.04.489,Cued GoNogo Task,2024.2.4,60.18052952592581,2025-05-01 21h27.13.960808 +0200,
block/CondBlock2.xlsx,You are about to start a block of type 2 trials.,17,17,0,Go,Go,0.26,0.2,0.05,space,blue,vertical,space,261.37226360000204,None,space,1,0.35112450004089624,None,,,,0,1,1,1,0,17,17,17,684.9465112000471,,,,,,,,,,,,,,,,684.9311683000997,684.9465112000471,685.6461476000259,685.6461476000259,686.1455584000796,686.1297187000746,686.1305127000669,686.1455584000796,686.4121798000997,686.5952689000405,686.5952689000405,686.9626191999996,space,1,0.35112450004089624,None,686.9672595000593,687.4776814000215,688.4771365000634,688.4611069000093,,,,,,,,,,,,,,,,,008,002,2025-05-01_21h27.04.489,Cued GoNogo Task,2024.2.4,60.18052952592581,2025-05-01 21h27.13.960808 +0200,
block/CondBlock2.xlsx,You are about to start a block of type 2 trials.,18,18,0,Go,Go,0.1,0.05,0.2,space,blue,horizontal,space,261.37226360000204,None,space,1,0.2987736000213772,None,,,,0,1,1,1,0,18,18,18,688.4771365000634,,,,,,,,,,,,,,,,688.4613907000748,688.4771365000634,689.1763214000966,689.1763214000966,689.6761309000431,689.6600741000148,689.6606896000449,689.6761309000431,689.7759066000581,689.9757132000523,689.9757132000523,690.2773252000334,space,1,0.2987736000213772,None,690.2809042000445,690.7918274000986,691.7910612000851,691.7750533000799,,,,,,,,,,,,,,,,,008,002,2025-05-01_21h27.04.489,Cued GoNogo Task,2024.2.4,60.18052952592581,2025-05-01 21h27.13.960808 +0200,
block/CondBlock2.xlsx,You are about to start a block of type 2 trials.,19,19,0,Go,Go,0.46,0.2,0.05,space,blue,vertical,space,261.37226360000204,None,space,1,0.24404060002416372,None,,,,0,1,1,1,0,19,19,19,691.7910612000851,,,,,,,,,,,,,,,,691.7752922000363,691.7910612000851,692.4902452999959,692.4902452999959,692.9900158999953,692.9739280000795,692.974546100013,692.9900158999953,693.4563084000256,693.6392485999968,693.6392485999968,693.8904928000411,space,1,0.24404060002416372,None,693.8947705000173,694.4053711000597,695.4045143000549,695.3888724000426,,,,,,,,,,,,,,,,,008,002,2025-05-01_21h27.04.489,Cued GoNogo Task,2024.2.4,60.18052952592581,2025-05-01 21h27.13.960808 +0200,
block/CondBlock2.xlsx,You are about to start a block of type 2 trials.,20,20,0,Go,Go,0.3,0.05,0.2,space,blue,horizontal,space,261.37226360000204,None,space,1,0.34722140000667423,None,,,,0,1,1,1,0,20,20,20,695.4045143000549,,,,,,,,,,,,,,,,695.389200600097,695.4045143000549,696.1038194000721,696.1038194000721,696.6036800000584,696.587548200041,696.5881053000921,696.6036800000584,696.9032246000133,697.1031727000372,697.1031727000372,697.454197700019,space,1,0.34722140000667423,None,697.4580474999966,697.9691672000336,,698.9683763000648,,,,,,,,,,,,,,,,,008,002,2025-05-01_21h27.04.489,Cued GoNogo Task,2024.2.4,60.18052952592581,2025-05-01 21h27.13.960808 +0200,
block/CondBlock2.xlsx,You are about to start a block of type 2 trials.,21,21,0,Go,Go,0.23,0.05,0.2,space,green,horizontal,space,261.37226360000204,None,space,1,0.3553412000183016,None,,,,0,1,1,1,0,21,21,21,698.9850035000127,,,,,,,,,,,,,,,,698.9686360000633,698.9850035000127,699.6678079999983,699.6845056000166,700.1674297000282,700.1515787000535,700.1523058000021,700.1674297000282,700.4007116000867,700.5837916000746,700.5837916000746,700.9510749001056,space,1,0.3553412000183016,None,700.9545776000014,701.4663978000171,702.465547000058,702.4496048000874,,,,,,,,,,,,,,,,,008,002,2025-05-01_21h27.04.489,Cued GoNogo Task,2024.2.4,60.18052952592581,2025-05-01 21h27.13.960808 +0200,
block/CondBlock2.xlsx,You are about to start a block of type 2 trials.,22,22,0,Go,Go,0.19,0.2,0.05,space,green,vertical,space,261.37226360000204,None,space,1,0.2510891000274569,None,,,,0,1,1,1,0,22,22,22,702.465547000058,,,,,,,,,,,,,,,,702.4498954000883,702.465547000058,703.1647984000156,703.1647984000156,703.66443600005,703.648291700054,703.6487620000262,703.66443600005,703.8644258000422,704.0475517000305,704.0475517000305,704.3152335000923,space,1,0.2510891000274569,None,704.3193432000699,704.8302314000903,705.8294008000521,705.8132640999975,,,,,,,,,,,,,,,,,008,002,2025-05-01_21h27.04.489,Cued GoNogo Task,2024.2.4,60.18052952592581,2025-05-01 21h27.13.960808 +0200,
block/CondBlock2.xlsx,You are about to start a block of type 2 trials.,23,23,0,NoGo,NoGo,0.41,0.2,0.05,none,blue,vertical,space,261.37226360000204,None,None,1,,,,,,0,1,1,1,0,23,23,23,705.8294008000521,,,,,,,,,,,,,,,,705.8134723000694,705.8294008000521,706.5288737000665,706.5288737000665,707.0283905999968,707.0125263000373,707.0129131000722,707.0283905999968,707.4447439000942,707.6279303000774,707.6279303000774,708.1112384001026,None,1,,,708.1133839000249,708.6104641000275,709.6094155000756,709.5937661000062,708.1274345000274,708.1274345000274,,,,,,,,,,,,,,,008,002,2025-05-01_21h27.04.489,Cued GoNogo Task,2024.2.4,60.18052952592581,2025-05-01 21h27.13.960808 +0200,
block/CondBlock2.xlsx,You are about to start a block of type 2 trials.,24,24,0,Go,Go,0.17,0.2,0.05,space,blue,vertical,space,261.37226360000204,None,space,1,0.2504509000573307,None,,,,0,1,1,1,0,24,24,24,709.6094155000756,,,,,,,,,,,,,,,,709.5940593000269,709.6263970000437,710.3257271000184,710.3257271000184,710.8252400000347,710.8095063000219,710.8102007000707,710.8252400000347,711.0084015000612,711.1915618000785,711.1915618000785,711.4589230000274,space,1,0.2504509000573307,None,711.4626455000835,711.97445530002,,712.973675700021,,,,,,,,,,,,,,,,,008,002,2025-05-01_21h27.04.489,Cued GoNogo Task,2024.2.4,60.18052952592581,2025-05-01 21h27.13.960808 +0200,
block/CondBlock2.xlsx,You are about to start a block of type 2 trials.,25,25,0,Go,Go,0.27,0.05,0.2,space,blue,horizontal,space,261.37226360000204,None,space,1,0.25953010004013777,None,,,,0,1,1,1,0,25,25,25,712.990171500016,,,,,,,,,,,,,,,,712.9740079001058,712.990171500016,713.6736740000779,713.6896860999987,,714.1726259000134,714.1733005000278,714.1889523999998,714.4723736000014,714.6388502001064,714.6388502001064,714.9064891000744,space,1,0.25953010004013777,None,714.9098116999958,715.4215960000874,,716.4205728000961,,,,,,,,,,,,,,,,,008,002,2025-05-01_21h27.04.489,Cued GoNogo Task,2024.2.4,60.18052952592581,2025-05-01 21h27.13.960808 +0200,
block/CondBlock2.xlsx,You are about to start a block of type 2 trials.,26,26,0,Go,Go,0.26,0.05,0.2,space,green,horizontal,space,261.37226360000204,None,space,1,0.30033160001039505,None,,,,0,1,1,1,0,26,26,26,716.4371216000291,,,,,,,,,,,,,,,,716.4208155000815,716.4371216000291,717.1200390000595,717.1365572001087,717.6196142000845,717.6036437000148,717.6040294000413,717.6196142000845,717.8861826000502,718.0693414000561,718.0693414000561,718.3866693000309,space,1,0.30033160001039505,None,718.3901217000093,718.9018393000588,719.9012501999969,719.8853647001088,,,,,,,,,,,,,,,,,008,002,2025-05-01_21h27.04.489,Cued GoNogo Task,2024.2.4,60.18052952592581,2025-05-01 21h27.13.960808 +0200,
block/CondBlock2.xlsx,You are about to start a block of type 2 trials.,27,27,0,Go,Go,0.22,0.2,0.05,space,green,vertical,space,261.37226360000204,None,space,1,0.23854649998247623,None,,,,0,1,1,1,0,27,27,27,719.9012501999969,,,,,,,,,,,,,,,,719.8856747000245,719.9012501999969,720.6006269000936,720.6006269000936,721.1000658000121,721.0840044000652,721.0845634000143,721.1000658000121,721.3332888000878,721.5166300000856,721.5166300000856,721.7678034000564,space,1,0.23854649998247623,None,721.7716711000539,722.282591800089,723.2815152000403,723.2662053999957,,,,,,,,,,,,,,,,,008,002,2025-05-01_21h27.04.489,Cued GoNogo Task,2024.2.4,60.18052952592581,2025-05-01 21h27.13.960808 +0200,
block/CondBlock2.xlsx,You are about to start a block of type 2 trials.,28,28,0,Go,Go,0.19,0.05,0.2,space,blue,horizontal,space,261.37226360000204,None,space,1,0.24371650000102818,None,,,,0,1,1,1,0,28,28,28,723.2815152000403,,,,,,,,,,,,,,,,723.266617400106,723.2815152000403,723.9811480001081,723.9811480001081,724.4805757000577,724.4644925000612,724.4649967000587,724.4805757000577,724.6804361999966,724.8637456001015,724.8637456001015,725.114307400072,space,1,0.24371650000102818,None,725.1170771000907,725.6297581000254,726.6289646000369,726.6129016000777,,,,,,,,,,,,,,,,,008,002,2025-05-01_21h27.04.489,Cued GoNogo Task,2024.2.4,60.18052952592581,2025-05-01 21h27.13.960808 +0200,
block/CondBlock2.xlsx,You are about to start a block of type 2 trials.,29,29,0,Go,Go,0.18,0.05,0.2,space,blue,horizontal,space,261.37226360000204,None,space,1,0.29581789998337626,None,,,,0,1,1,1,0,29,29,29,726.6289646000369,,,,,,,,,,,,,,,,726.6132228000788,726.6289646000369,727.3283809000859,727.3283809000859,727.827750000055,727.8121947000036,727.8128281000536,727.827750000055,728.0112974001095,728.1943737000693,728.1943737000693,728.4950259000761,space,1,0.29581789998337626,None,728.4983417000622,729.0102585999994,730.0095061000902,729.9933804000029,,,,,,,,,,,,,,,,,008,002,2025-05-01_21h27.04.489,Cued GoNogo Task,2024.2.4,60.18052952592581,2025-05-01 21h27.13.960808 +0200,
block/CondBlock2.xlsx,You are about to start a block of type 2 trials.,30,30,0,NoGo,NoGo,0.23,0.2,0.05,none,blue,vertical,space,261.37226360000204,None,None,1,,,,,,0,1,1,1,0,30,30,30,730.0095061000902,,,,,,,,,,,,,,,,729.9936143000377,730.0095061000902,730.7088580999989,730.7088580999989,731.2085959000979,731.1924943000777,731.1931240000995,731.2085959000979,731.4414772000164,731.6247964000795,731.6247964000795,732.1082902000053,None,1,,,732.1105199001031,732.6239900001092,733.6230323000345,733.6070210000034,732.1243858000962,732.1243858000962,,,,,,,,,,,,,,,008,002,2025-05-01_21h27.04.489,Cued GoNogo Task,2024.2.4,60.18052952592581,2025-05-01 21h27.13.960808 +0200,
block/CondBlock2.xlsx,You are about to start a block of type 2 trials.,31,31,0,Go,Go,0.43,0.2,0.05,space,green,vertical,space,261.37226360000204,None,space,1,0.3090331999119371,None,,,,0,1,1,1,0,31,31,31,733.6230323000345,,,,,,,,,,,,,,,,733.6072735000635,733.6230323000345,734.3225853000768,734.3225853000768,734.8221435000887,734.8063722000225,734.8070382000878,734.8221435000887,735.2552407000912,735.4382477001054,735.4382477001054,735.7562603000551,space,1,0.3090331999119371,None,735.7609869000735,736.2709535000613,737.2701163000893,737.2542027001036,,,,,,,,,,,,,,,,,008,002,2025-05-01_21h27.04.489,Cued GoNogo Task,2024.2.4,60.18052952592581,2025-05-01 21h27.13.960808 +0200,
block/CondBlock2.xlsx,You are about to start a block of type 2 trials.,32,32,0,Go,Go,0.13,0.05,0.2,space,blue,horizontal,space,261.37226360000204,None,space,1,0.24096629989799112,None,,,,0,1,1,1,0,32,32,32,737.2701163000893,,,,,,,,,,,,,,,,737.254522100091,737.2701163000893,737.9695403000806,737.9695403000806,738.4692311000545,738.4530209000222,738.4535351000959,738.4692311000545,738.6026177000022,738.7854783000657,738.7854783000657,739.0368002000032,space,1,0.24096629989799112,None,739.0418954000343,739.5516572000924,740.5507341000484,740.5348672000691,,,,,,,,,,,,,,,,,008,002,2025-05-01_21h27.04.489,Cued GoNogo Task,2024.2.4,60.18052952592581,2025-05-01 21h27.13.960808 +0200,
block/CondBlock2.xlsx,You are about to start a block of type 2 trials.,33,33,0,Go,Go,0.45,0.05,0.2,space,green,horizontal,space,261.37226360000204,None,space,1,0.1950770999537781,None,,,,0,1,1,1,0,33,33,33,740.5507341000484,,,,,,,,,,,,,,,,740.5352033000672,740.5507341000484,741.2502774000168,741.2502774000168,741.7497976000886,741.7341847000644,741.7348830000265,741.7497976000886,742.1993740000762,742.3994413000764,742.3994413000764,742.600409500068,space,1,0.1950770999537781,None,742.6046564000426,743.115246500005,744.1145316000329,744.0987975000171,,,,,,,,,,,,,,,,,008,002,2025-05-01_21h27.04.489,Cued GoNogo Task,2024.2.4,60.18052952592581,2025-05-01 21h27.13.960808 +0200,
block/CondBlock2.xlsx,You are about to start a block of type 2 trials.,34,34,0,Go,Go,0.14,0.2,0.05,space,blue,vertical,space,261.37226360000204,None,space,1,0.2929283999837935,None,,,,0,1,1,1,0,34,34,34,744.1145316000329,,,,,,,,,,,,,,,,744.0991287000943,744.1145316000329,744.8139662001049,744.8139662001049,745.3136061000405,745.2980511001078,745.2988872000715,745.3136061000405,745.4633963000961,745.6465644000564,745.6465644000564,745.9472914000507,space,1,0.2929283999837935,None,745.9510426000925,746.4626722000539,747.4617863000603,747.4458930999972,,,,,,,,,,,,,,,,,008,002,2025-05-01_21h27.04.489,Cued GoNogo Task,2024.2.4,60.18052952592581,2025-05-01 21h27.13.960808 +0200,
block/CondBlock2.xlsx,You are about to start a block of type 2 trials.,35,35,0,Go,Go,0.11,0.2,0.05,space,blue,vertical,space,261.37226360000204,None,space,1,0.33780510001815856,None,,,,0,1,1,1,0,35,35,35,747.4617863000603,,,,,,,,,,,,,,,,747.4461640000809,747.4617863000603,748.161303000059,748.161303000059,748.6608388000168,748.644820400048,748.6455529000377,748.6608388000168,748.7774637000402,748.9603655000683,748.9603655000683,749.3111346000805,space,1,0.33780510001815856,None,749.3144189000595,749.8265194999985,750.8256922001019,750.8096891000168,,,,,,,,,,,,,,,,,008,002,2025-05-01_21h27.04.489,Cued GoNogo Task,2024.2.4,60.18052952592581,2025-05-01 21h27.13.960808 +0200,
block/CondBlock2.xlsx,You are about to start a block of type 2 trials.,36,36,0,Go,Go,0.15,0.05,0.2,space,green,horizontal,space,261.37226360000204,None,space,1,0.18132169998716563,None,,,,0,1,1,1,0,36,36,36,750.8256922001019,,,,,,,,,,,,,,,,750.8099828000413,750.8256922001019,751.5250560001004,751.5250560001004,752.0247540000128,752.0088785000844,752.0096424000803,752.0247540000128,752.1745386000257,752.3744339999976,752.3744339999976,752.5591832000064,space,1,0.18132169998716563,None,752.5630392000312,753.0739687000168,754.0730081000365,754.0573335000081,,,,,,,,,,,,,,,,,008,002,2025-05-01_21h27.04.489,Cued GoNogo Task,2024.2.4,60.18052952592581,2025-05-01 21h27.13.960808 +0200,
block/CondBlock2.xlsx,You are about to start a block of type 2 trials.,37,37,0,Go,Go,0.15,0.2,0.05,space,green,vertical,space,261.37226360000204,None,space,1,0.15720280003733933,None,,,,0,1,1,1,0,37,37,37,754.0730081000365,,,,,,,,,,,,,,,,754.0577483000234,754.0730081000365,754.7725817000028,754.7725817000028,755.2721363001037,755.2561686000554,755.2568494000006,755.2721363001037,755.4219028000953,755.6218332001008,755.6218332001008,755.789248200017,space,1,0.15720280003733933,None,755.7928567000199,756.3045135000721,757.3038124000886,757.2877076000441,,,,,,,,,,,,,,,,,008,002,2025-05-01_21h27.04.489,Cued GoNogo Task,2024.2.4,60.18052952592581,2025-05-01 21h27.13.960808 +0200,
block/CondBlock2.xlsx,You are about to start a block of type 2 trials.,38,38,0,NoGo,NoGo,0.14,0.2,0.05,none,green,vertical,space,261.37226360000204,None,space,0,0.23833469999954104,None,,,,0,1,1,1,0,38,38,38,757.3038124000886,,,,,,,,,,,,,,,,757.2879749001004,757.3038124000886,758.0033096000552,758.0033096000552,758.5026497000363,758.4865969000384,758.4872577000642,758.5026497000363,758.6526556001045,758.8359556000214,758.8359556000214,759.0866489000618,space,0,0.23833469999954104,None,759.091163400095,759.601816700073,760.6009618000826,760.5852117000613,,,,,,,,,,,,,,,,,008,002,2025-05-01_21h27.04.489,Cued GoNogo Task,2024.2.4,60.18052952592581,2025-05-01 21h27.13.960808 +0200,
block/CondBlock2.xlsx,You are about to start a block of type 2 trials.,39,39,0,Go,Go,0.46,0.2,0.05,space,green,vertical,space,261.37226360000204,None,space,1,0.2091008999850601,None,,,,0,1,1,1,0,39,39,39,760.6009618000826,,,,,,,,,,,,,,,,760.5854934999952,760.6009618000826,761.3003783000167,761.3003783000167,761.800093100057,761.7841844001086,761.7846537000732,761.800093100057,762.2662689000135,762.4495663000271,762.4495663000271,762.6670647000428,space,1,0.2091008999850601,None,762.6700673000887,763.1819990000222,764.1812614999944,764.1652541001095,,,,,,,,,,,,,,,,,008,002,2025-05-01_21h27.04.489,Cued GoNogo Task,2024.2.4,60.18052952592581,2025-05-01 21h27.13.960808 +0200,
block/CondBlock2.xlsx,You are about to start a block of type 2 trials.,40,40,0,Go,Go,0.5,0.05,0.2,space,blue,horizontal,space,261.37226360000204,None,space,1,0.36263039999175817,None,,,,0,1,1,1,0,40,40,40,764.1812614999944,,,,,,,,,,,,,,,,764.1654851000058,764.1812614999944,764.8808635000605,764.8808635000605,765.3802990000695,765.36456310004,765.3653214001097,765.3802990000695,765.8801377000054,766.07968360011,766.07968360011,766.4479357000673,space,1,0.36263039999175817,None,766.4525313000195,766.9627340000588,767.9616213000845,767.9461427000351,,,,,,,,,,,,,,,,,008,002,2025-05-01_21h27.04.489,Cued GoNogo Task,2024.2.4,60.18052952592581,2025-05-01 21h27.13.960808 +0200,
block/CondBlock2.xlsx,You are about to start a block of type 2 trials.,41,41,0,Go,Go,0.16,0.05,0.2,space,green,horizontal,space,261.37226360000204,None,space,1,0.34782430005725473,None,,,,0,1,1,1,0,41,41,41,767.9616213000845,,,,,,,,,,,,,,,,767.9464749000035,767.9616213000845,768.6610357000027,768.6610357000027,769.1604830001015,769.1448460000101,769.1454692000989,769.1604830001015,769.3270365000935,769.5101921000751,769.5101921000751,769.8614088000031,space,1,0.34782430005725473,None,769.8651614000555,770.376258400036,771.3753765000729,771.3595154000213,,,,,,,,,,,,,,,,,008,002,2025-05-01_21h27.04.489,Cued GoNogo Task,2024.2.4,60.18052952592581,2025-05-01 21h27.13.960808 +0200,
